"id","run_number","trial","block","stim1","stim2","feedback","choice","outcome","times_too_slow","trial_started","iti_ideal_lag","stim_time","choice_time","reaction_time","correct_choice","feedback_isi","feedback_time","every_ten","experiment_date","experiment_build","site","trial_type","trial_started_next","stim_time_next","iti_ideal","too_slow_lead","bad_trial","outcome_fac","iti_actual","trial_completed","was_slow","was_slow_lead","rt_diff","feedback_diff","onset_diff","neg_diff"
221604,1,1,1000,181,182,1,1,0,0,2.76358230000005,2.58,5.5434366999998,7.89259829999992,2.24558640000032,0,1.35,11.5816261,0,2021-05-17 20:54:22,"2-Feb-2021","pitt","new_learn",11.6949315000002,15.0291161000005,3.09,0,FALSE,"nothing",2.4474900000005,NA,"FALSE","FALSE",-0.1035751999998,2.33902780000008,-0.886694599999799,TRUE
221604,1,2,1000,182,180,1,0,1,0,11.6949315000002,3.09,15.0291161000005,16.7046271999998,1.57199619999938,1,2.79,20.5755796000003,0,2021-05-17 20:54:22,"2-Feb-2021","pitt","new_learn",20.6812359000005,24.8817520000002,4.09,0,FALSE,"win",3.3061723999999,NA,"FALSE","FALSE",-0.103514899999918,1.0809524000005,-0.894343699999798,TRUE
221604,1,3,1000,181,180,1,0,0,0,20.6812359000005,4.09,24.8817520000002,26.4390204000001,1.45522720000008,1,4.15,31.7016665000001,0,2021-05-17 20:54:22,"2-Feb-2021","pitt","new_learn",31.7527660000005,34.7696894000001,2.09,0,FALSE,"nothing",2.0680229,NA,"FALSE","FALSE",-0.102041199999819,1.1126461,-0.948900499999603,TRUE
221604,1,4,1000,126,-1000,0,0,1,0,31.7527660000005,2.09,34.7696894000001,36.8532107999999,2.78352269999959,0,4.48,41.4929018000003,0,2021-05-17 20:54:22,"2-Feb-2021","pitt","accrej",42.5667265000002,46.7017388000004,3.25,0,FALSE,"win",4.2088370000001,NA,"FALSE","FALSE",0.700001299999787,0.159691000000393,0.0738246999999035,FALSE
221604,1,5,1000,107,-1000,0,1,-1,0,42.5667265000002,3.25,46.7017388000004,48.6416581000003,2.60885959999996,1,0.88,49.7408458,0,2021-05-17 20:54:22,"2-Feb-2021","pitt","accrej",50.8199942000001,53.5634941999997,2.48,0,FALSE,"loss",2.8226483999997,NA,"FALSE","FALSE",0.66894030000006,0.219187699999701,0.0791484000001006,FALSE
221604,1,6,1000,68,-1000,0,1,0,0,50.8199942000001,2.48,53.5634941999997,55.0312583000004,1.48238420000052,1,4.34,59.5694086000003,0,2021-05-17 20:54:22,"2-Feb-2021","pitt","accrej",60.6645638,63.0837358999997,2.28,0,FALSE,"nothing",2.5143272999994,NA,"FALSE","FALSE",0.0146200999998201,0.198150299999895,0.0951551999997022,FALSE
221604,1,7,1000,180,181,1,0,-1,0,60.6645638,2.28,63.0837358999997,64.9696149000001,1.78327800000079,0,0.96,68.6271212000001,0,2021-05-17 20:54:22,"2-Feb-2021","pitt","new_learn",68.7120356000005,72.3818706000002,3.59,0,FALSE,"loss",2.75474940000009,NA,"FALSE","FALSE",-0.102600999999604,2.69750630000001,-0.9150855999996,TRUE
221604,1,8,1000,182,181,1,0,0,0,68.7120356000005,3.59,72.3818706000002,73.9117017999997,1.42728819999957,0,4.79,79.8364380000003,0,2021-05-17 20:54:22,"2-Feb-2021","pitt","new_learn",79.9125383999999,82.0344616000002,1.98,0,FALSE,"nothing",1.1980235999999,NA,"FALSE","FALSE",-0.102542999999937,1.13473620000059,-0.923899600000397,TRUE
221604,1,9,1000,180,182,1,1,0,0,79.9125383999999,1.98,82.0344616000002,83.4242976000005,1.28761709999981,1,0.83,87.0484398999997,0,2021-05-17 20:54:22,"2-Feb-2021","pitt","new_learn",87.1237634999998,89.2160318000006,1.96,0,FALSE,"nothing",1.16759190000089,NA,"FALSE","FALSE",-0.102218900000491,2.79414229999921,-0.92467639999991,TRUE
221604,1,10,1000,180,181,0,1,1,0,87.1237634999998,1.96,89.2160318000006,91.0618323999997,1.74403439999969,1,0.7,94.6600317000002,94.7239864000003,2021-05-17 20:54:22,"2-Feb-2021","pitt","accrej",97.2849366,99.3762951999997,2,0,FALSE,"win",3.7162634999995,NA,"FALSE","FALSE",-0.101766199999419,2.8981993000005,-0.875095100000209,TRUE
221604,1,11,1000,182,180,0,0,0,0,97.2849366,2,99.3762951999997,100.5368091,1.0587131000002,1,1.11,104.187151,0,2021-05-17 20:54:22,"2-Feb-2021","pitt","accrej",104.2668952,106.7638329,2.38,0,FALSE,"nothing",1.5766819,NA,"FALSE","FALSE",-0.101800800000097,2.5403419,-0.920255800000007,TRUE
221604,1,12,1000,182,181,0,0,1,0,104.2668952,2.38,106.7638329,108.727880500001,1.86222949999956,0,2.61,112.4482699,0,2021-05-17 20:54:22,"2-Feb-2021","pitt","accrej",112.5249708,115.8217763,2.93,0,FALSE,"win",2.3735064,NA,"FALSE","FALSE",-0.10181810000145,1.11038939999899,-0.923299099999994,TRUE
221604,1,13,1000,115,-1000,1,0,0,0,112.5249708,2.93,115.8217763,117.1367229,1.48837269999967,1,1.66,118.8612587,0,2021-05-17 20:54:22,"2-Feb-2021","pitt","new_learn",119.9154301,122.6726185,2.64,0,FALSE,"nothing",2.81135980000001,NA,"FALSE","FALSE",0.173426099999671,0.0645358000000016,0.0541714000000013,FALSE
221604,1,14,1000,181,180,1,0,-1,0,119.9154301,2.64,122.6726185,124.1055462,1.33063579999998,1,1.71,127.7881573,0,2021-05-17 20:54:22,"2-Feb-2021","pitt","new_learn",127.874247,131.1875224,2.89,0,FALSE,"loss",2.39936510000001,NA,"FALSE","FALSE",-0.102291900000028,1.97261109999999,-0.913910299999998,TRUE
221604,1,15,1000,58,-1000,1,0,1,0,127.874247,2.89,131.1875224,132.333736600001,1.3321704,1,3,135.471215600001,0,2021-05-17 20:54:22,"2-Feb-2021","pitt","new_learn",136.526992300001,138.8559176,2.05,0,FALSE,"win",2.38470199999901,NA,"FALSE","FALSE",0.185956199999002,0.137478999999985,0.055776700000024,FALSE
221604,1,16,1000,111,-1000,0,0,-1,0,136.526992300001,2.05,138.8559176,140.2695262,1.42850480000016,0,0.97,141.2861061,0,2021-05-17 20:54:22,"2-Feb-2021","pitt","accrej",142.3758363,145.099108,2.56,0,FALSE,"loss",2.81300189999999,NA,"FALSE","FALSE",0.0148962000001565,0.0465799000000118,0.0897301999999911,FALSE
221604,1,17,1000,181,182,0,1,0,0,142.3758363,2.56,145.099108,146.1527693,0.949950999999601,0,4.17,151.3890741,0,2021-05-17 20:54:22,"2-Feb-2021","pitt","accrej",151.46025,154.9058516,3.21,0,FALSE,"nothing",2.51677750000002,NA,"FALSE","FALSE",-0.103710300000387,1.06630480000001,-0.928824099999986,TRUE
221604,1,18,1000,75,-1000,0,1,-1,0,151.46025,3.21,154.9058516,156.1460891,1.33035769999969,1,2.53,158.8603425,0,2021-05-17 20:54:22,"2-Feb-2021","pitt","accrej",159.923613800001,163.2951759,3.07,0,FALSE,"loss",3.4348334,NA,"FALSE","FALSE",0.0901201999996837,0.184253399999989,0.0632713000009915,FALSE
221604,1,19,1000,49,-1000,1,0,1,0,159.923613800001,3.07,163.2951759,164.3760841,1.10102299999926,1,0.75,165.218392700001,0,2021-05-17 20:54:22,"2-Feb-2021","pitt","new_learn",166.2741991,168.995077,2.43,0,FALSE,"win",2.776684299999,NA,"FALSE","FALSE",0.0201147999992497,0.0923086000009903,0.0558063999989997,FALSE
221604,1,20,1000,122,-1000,1,1,1,0,166.2741991,2.43,168.995077,170.0662837,1.07913899999949,1,4.81,174.9372443,176.0104799,2021-05-17 20:54:22,"2-Feb-2021","pitt","new_learn",178.5677513,181.2953461,2.67,0,FALSE,"win",5.35810179999999,NA,"FALSE","FALSE",0.0079322999994853,0.0609605999999872,0.130506999999994,FALSE
221604,1,21,1000,180,182,1,1,0,0,178.5677513,2.67,181.2953461,182.5699644,1.1727290000008,1,0.86,186.1994354,0,2021-05-17 20:54:22,"2-Feb-2021","pitt","new_learn",186.2854054,188.622742,2.01,0,FALSE,"nothing",1.42330659999999,NA,"FALSE","FALSE",-0.101889299999214,2.76947099999998,-0.914029999999997,TRUE
221604,1,22,1000,130,-1000,0,0,1,0,186.2854054,2.01,188.622742,189.8637095,1.39264029999958,1,1.56,191.5539304,0,2021-05-17 20:54:22,"2-Feb-2021","pitt","accrej",192.6363727,195.033056400001,2.2,0,FALSE,"win",2.47912600000097,NA,"FALSE","FALSE",0.151672799999569,0.130220900000012,0.0824422999999967,FALSE
221604,1,23,1000,180,182,0,1,1,0,192.6363727,2.2,195.033056400001,196.5873278,1.45123989999956,1,4.31,201.9729848,0,2021-05-17 20:54:22,"2-Feb-2021","pitt","accrej",202.0563576,205.0926393,2.94,0,FALSE,"win",2.1196545,NA,"FALSE","FALSE",-0.10303149999945,1.07565700000001,-0.916627199999994,TRUE
221604,1,24,1000,181,180,0,1,1,0,202.0563576,2.94,205.0926393,206.8961233,1.70159349999994,0,1.41,210.5332865,0,2021-05-17 20:54:22,"2-Feb-2021","pitt","accrej",210.614933,212.7156379,2.03,0,FALSE,"win",1.18235139999999,NA,"FALSE","FALSE",-0.101890500000057,2.22716320000001,-0.918353499999995,TRUE
221604,1,25,1000,182,181,1,0,0,0,210.614933,2.03,212.7156379,214.750121300001,1.93258440000045,0,4.29,220.1603216,0,2021-05-17 20:54:22,"2-Feb-2021","pitt","new_learn",220.239677600001,224.5795492,4.28,0,FALSE,"nothing",3.4192276,NA,"FALSE","FALSE",-0.101899000000572,1.120200299999,-0.920643999999015,TRUE
221604,1,26,1000,180,181,1,1,1,0,220.239677600001,4.28,224.5795492,225.7486544,1.06650489999993,1,1.53,229.387528400001,0,2021-05-17 20:54:22,"2-Feb-2021","pitt","new_learn",229.4634273,232.525420200001,2.98,0,FALSE,"win",2.13789180000001,NA,"FALSE","FALSE",-0.10260030000006,2.10887400000101,-0.924101100000996,TRUE
221604,1,27,1000,182,180,1,1,-1,0,229.4634273,2.98,232.525420200001,233.8151616,1.18764839999949,0,4.77,239.6473667,0,2021-05-17 20:54:22,"2-Feb-2021","pitt","new_learn",239.7254231,242.3703985,2.25,0,FALSE,"loss",1.7230318,NA,"FALSE","FALSE",-0.102092999999512,1.06220509999997,-0.921943599999992,TRUE
221604,1,28,1000,137,-1000,0,0,1,0,239.7254231,2.25,242.3703985,243.795021,1.6445235000001,1,2.7,246.5951486,0,2021-05-17 20:54:22,"2-Feb-2021","pitt","accrej",247.6467223,249.800963,1.82,0,FALSE,"win",2.20581440000001,NA,"FALSE","FALSE",0.219901000000102,0.100127600000008,0.0515737000000058,FALSE
221604,1,29,1000,135,-1000,0,0,-1,0,247.6467223,1.82,249.800963,251.2260702,1.46131679999962,0,5.03,256.3260001,0,2021-05-17 20:54:22,"2-Feb-2021","pitt","accrej",257.4098772,265.6651697,8.12,0,FALSE,"loss",8.33916959999999,NA,"FALSE","FALSE",0.0362095999996064,0.0699298999999769,0.0838770999999952,FALSE
221604,1,30,1000,181,182,0,0,-1,0,257.4098772,8.12,265.6651697,267.1275648,1.36000180000065,1,1.83,270.7601876,270.8209631,2021-05-17 20:54:22,"2-Feb-2021","pitt","accrej",273.3822827,276.1736262,2.44,0,FALSE,"loss",4.41343860000001,NA,"FALSE","FALSE",-0.102393299999388,1.80262279999999,-0.877904899999976,TRUE
221604,1,31,1000,78,-1000,1,0,-1,0,273.3822827,2.44,276.1736262,277.68938,1.6876843,0,1.17,278.9802276,0,2021-05-17 20:54:22,"2-Feb-2021","pitt","new_learn",280.035156200001,282.9972218,2.76,0,FALSE,"loss",3.0169942,NA,"FALSE","FALSE",0.171930499999973,0.120847599999934,0.0549286000010056,FALSE
221604,1,32,1000,182,181,1,1,1,0,280.035156200001,2.76,282.9972218,284.271778,1.17284279999967,1,3.39,288.7648322,0,2021-05-17 20:54:22,"2-Feb-2021","pitt","new_learn",288.822290300001,291.3259512,2.28,0,FALSE,"win",1.56111900000002,NA,"FALSE","FALSE",-0.101713400000336,1.10305420000003,-0.942541899999014,TRUE
221604,1,33,1000,71,-1000,1,1,-1,0,288.822290300001,2.28,291.3259512,292.8458848,1.6049839999996,1,2.76,295.789573,0,2021-05-17 20:54:22,"2-Feb-2021","pitt","new_learn",296.884721500001,299.6213455,2.51,0,FALSE,"loss",2.8317725,NA,"FALSE","FALSE",0.0850503999995984,0.183688200000006,0.0951485000009598,FALSE
221604,1,34,1000,54,-1000,0,1,-1,0,296.884721500001,2.51,299.6213455,301.1287419,1.53254469999956,1,0.85,302.0380892,0,2021-05-17 20:54:22,"2-Feb-2021","pitt","accrej",303.170728300001,309.8840436,6.51,0,FALSE,"loss",6.84595439999998,NA,"FALSE","FALSE",0.0251482999995554,0.0593472999999562,0.132639100000972,FALSE
221604,1,35,1000,91,-1000,0,1,-1,0,303.170728300001,6.51,309.8840436,311.5488248,1.6908512,0,3.09,314.7390107,0,2021-05-17 20:54:22,"2-Feb-2021","pitt","accrej",315.8362143,322.8086522,6.85,0,FALSE,"loss",7.06964149999999,NA,"FALSE","FALSE",0.0260700000000069,0.100185900000042,0.0972036000000003,FALSE
221604,1,36,1000,182,180,0,0,0,0,315.8362143,6.85,322.8086522,324.7246188,1.81336360000023,1,3.95,329.721105000001,0,2021-05-17 20:54:22,"2-Feb-2021","pitt","accrej",329.7916633,333.3611399,3.5,0,FALSE,"nothing",2.64003489999902,NA,"FALSE","FALSE",-0.10260299999976,1.04648620000103,-0.929441700001007,TRUE
221604,1,37,1000,180,181,1,1,1,0,329.7916633,3.5,333.3611399,334.398772,0.935935900000004,1,4.65,340.1808867,0,2021-05-17 20:54:22,"2-Feb-2021","pitt","new_learn",340.2548394,342.154550400001,1.84,0,FALSE,"win",0.973663700001055,NA,"FALSE","FALSE",-0.101696199999992,1.13211469999999,-0.926047299999993,TRUE
221604,1,38,1000,180,182,1,1,1,0,340.2548394,1.84,342.154550400001,343.847989800001,1.59160329999941,1,4.43,349.4081548,0,2021-05-17 20:54:22,"2-Feb-2021","pitt","new_learn",349.4784536,352.7440069,3.2,0,FALSE,"win",2.33585210000001,NA,"FALSE","FALSE",-0.101836100000578,1.13016499999895,-0.929701199999954,TRUE
221604,1,39,1000,181,180,1,0,1,0,349.4784536,3.2,352.7440069,353.8096567,0.963995899999645,1,1.57,357.4527991,0,2021-05-17 20:54:22,"2-Feb-2021","pitt","new_learn",357.504913100001,360.0118605,2.22,0,FALSE,"win",1.55906140000002,NA,"FALSE","FALSE",-0.101653900000372,2.07314239999999,-0.947885999999016,TRUE
221604,1,40,1000,134,-1000,0,1,1,0,357.504913100001,2.22,360.0118605,361.4337109,1.51207830000021,1,3.7,365.2362752,366.2807617,2021-05-17 20:54:22,"2-Feb-2021","pitt","accrej",368.836835300001,371.1593798,2.28,0,FALSE,"win",4.92310459999999,NA,"FALSE","FALSE",0.0902279000002275,0.10256430000004,0.100560100000962,FALSE
221604,1,41,1000,181,182,0,0,1,0,368.836835300001,2.28,371.1593798,372.3884578,1.12677249999979,1,5.17,378.605444100001,0,2021-05-17 20:54:22,"2-Feb-2021","pitt","accrej",378.6900256,382.0564575,3.3,0,FALSE,"win",2.451013399999,NA,"FALSE","FALSE",-0.102305500000226,1.04698630000098,-0.91541850000101,TRUE
221604,1,42,1000,182,180,0,0,-1,0,378.6900256,3.3,382.0564575,383.2047768,1.04571759999999,1,1.69,386.8665924,0,2021-05-17 20:54:22,"2-Feb-2021","pitt","accrej",386.951536,389.5555368,2.32,0,FALSE,"loss",1.68894440000003,NA,"FALSE","FALSE",-0.102601699999979,1.97181560000001,-0.915056400000026,TRUE
221604,1,43,1000,37,-1000,1,1,1,0,386.951536,2.32,389.5555368,391.458081700001,1.99299489999976,0,4.83,396.3536764,0,2021-05-17 20:54:22,"2-Feb-2021","pitt","new_learn",397.4244813,401.9477107,4.2,0,FALSE,"win",4.59403430000003,NA,"FALSE","FALSE",0.0904499999987842,0.0655946999989965,0.0708049000000415,FALSE
221604,1,44,1000,59,-1000,1,1,-1,0,397.4244813,4.2,401.9477107,403.7870914,1.95413800000006,1,2.92,406.8136244,0,2021-05-17 20:54:22,"2-Feb-2021","pitt","new_learn",407.909712,412.1739688,3.44,0,FALSE,"loss",4.36034440000003,NA,"FALSE","FALSE",0.114757300000068,0.106532999999956,0.0960876000000326,FALSE
221604,1,45,1000,28,-1000,1,0,0,0,407.909712,3.44,412.1739688,413.8252742,2.2657734000004,1,3.3,417.1813377,0,2021-05-17 20:54:22,"2-Feb-2021","pitt","new_learn",418.262609500001,421.3245562,2.88,0,FALSE,"nothing",3.14321850000005,NA,"FALSE","FALSE",0.614468000000388,0.0560634999999365,0.0812718000010477,FALSE
221604,1,46,1000,180,182,0,1,0,0,418.262609500001,2.88,421.3245562,422.686024000001,1.25890479999998,1,3.21,426.9733871,0,2021-05-17 20:54:22,"2-Feb-2021","pitt","accrej",427.0517604,430.2157373,3.12,0,FALSE,"nothing",2.24235019999998,NA,"FALSE","FALSE",-0.102563000001,1.07736309999905,-0.921626700000047,TRUE
221604,1,47,1000,182,181,0,1,1,0,427.0517604,3.12,430.2157373,431.2072737,0.888330499999938,1,4.89,437.2333423,0,2021-05-17 20:54:22,"2-Feb-2021","pitt","accrej",437.3112418,439.8462419,2.45,0,FALSE,"win",1.61289959999999,NA,"FALSE","FALSE",-0.103205900000035,1.13606860000004,-0.922100499999999,TRUE
221604,1,48,1000,181,180,0,0,1,0,437.3112418,2.45,439.8462419,441.1185768,1.16983960000016,1,5.04,447.2933199,0,2021-05-17 20:54:22,"2-Feb-2021","pitt","accrej",447.3727081,449.6784205,1.76,0,FALSE,"win",1.38510060000004,NA,"FALSE","FALSE",-0.102495299999873,1.13474309999992,-0.920611799999961,TRUE
221604,1,49,1000,98,-1000,1,0,0,0,447.3727081,1.76,449.6784205,450.8115033,1.45396909999999,1,5.15,456.046647,0,2021-05-17 20:54:22,"2-Feb-2021","pitt","new_learn",457.1051568,459.8554592,2.45,0,FALSE,"nothing",2.80881219999998,NA,"FALSE","FALSE",0.320886299999979,0.0851437000000033,0.0585097999999675,FALSE
221604,1,50,1000,40,-1000,1,0,-1,0,457.1051568,2.45,459.8554592,461.1813973,1.36182699999972,1,4.96,466.2063234,467.2388456,2021-05-17 20:54:22,"2-Feb-2021","pitt","new_learn",469.8043395,478.852999,8.8,0,FALSE,"loss",11.6466756,NA,"FALSE","FALSE",0.0358888999996896,0.0649260999999797,0.0980161000000521,FALSE
221604,1,51,1000,33,-1000,1,0,0,0,469.8043395,8.8,478.852999,480.7769117,2.00348049999957,0,3,483.8552181,0,2021-05-17 20:54:22,"2-Feb-2021","pitt","new_learn",484.9374475,487.1344327,2,0,FALSE,"nothing",2.27921459999999,NA,"FALSE","FALSE",0.0795677999995532,0.078306399999974,0.082229400000017,FALSE
221604,1,52,1000,180,181,0,1,1,0,484.9374475,2,487.1344327,488.5466598,1.30977640000037,1,5.14,494.7120291,0,2021-05-17 20:54:22,"2-Feb-2021","pitt","accrej",494.7919316,497.3628348,2.35,0,FALSE,"win",1.65080569999998,NA,"FALSE","FALSE",-0.102450699999626,1.02536930000002,-0.920097499999997,TRUE
221604,1,53,1000,129,-1000,0,1,1,0,494.7919316,2.35,497.3628348,498.5579314,1.27316530000007,1,4.35,503.0315622,0,2021-05-17 20:54:22,"2-Feb-2021","pitt","accrej",504.0963177,506.7487448,2.4,0,FALSE,"win",2.7171826,NA,"FALSE","FALSE",0.0780687000000706,0.123630800000001,0.0647554999999898,FALSE
221604,1,54,1000,47,-1000,0,0,1,0,504.0963177,2.4,506.7487448,508.4634311,1.75372229999994,1,1.65,510.2250541,0,2021-05-17 20:54:22,"2-Feb-2021","pitt","accrej",511.3116952,513.8210268,2.26,0,FALSE,"win",2.5959727,NA,"FALSE","FALSE",0.0390359999999574,0.111623000000066,0.0866410999999516,FALSE
221604,1,55,1000,132,-1000,1,1,0,0,511.3116952,2.26,513.8210268,515.6292153,1.83375429999978,1,3.47,519.2095118,0,2021-05-17 20:54:22,"2-Feb-2021","pitt","new_learn",520.3026388,526.202713,5.57,0,FALSE,"nothing",5.99320120000004,NA,"FALSE","FALSE",0.0255657999997516,0.11029649999989,0.0931269999999813,FALSE
221604,1,56,1000,103,-1000,1,0,1,0,520.3026388,5.57,526.202713,528.0201049,1.91794850000042,1,4.44,532.550599,0,2021-05-17 20:54:22,"2-Feb-2021","pitt","new_learn",533.6730356,535.8084111,1.87,0,FALSE,"win",2.25781209999991,NA,"FALSE","FALSE",0.100556600000459,0.0904941000000008,0.122436600000015,FALSE
221604,1,57,1000,93,-1000,1,1,1,0,533.6730356,1.87,535.8084111,536.936732,1.21874360000038,1,0.93,538.057654,0,2021-05-17 20:54:22,"2-Feb-2021","pitt","new_learn",539.1293292,544.9116553,5.42,0,FALSE,"win",5.85400130000005,NA,"FALSE","FALSE",0.0904227000003175,0.190922,0.0716752000000724,FALSE
221604,1,58,1000,34,-1000,0,0,-1,0,539.1293292,5.42,544.9116553,546.3954801,1.58570069999951,1,4.47,550.9646736,0,2021-05-17 20:54:22,"2-Feb-2021","pitt","accrej",552.0483631,555.7131129,3.49,0,FALSE,"loss",3.74843930000009,NA,"FALSE","FALSE",0.101875899999531,0.0991934999999557,0.0836894999999913,FALSE
221604,1,59,1000,181,182,0,0,1,0,552.0483631,3.49,555.7131129,556.9323476,1.11700850000034,1,2.86,560.8515944,0,2021-05-17 20:54:22,"2-Feb-2021","pitt","accrej",560.9340529,563.0113044,1.8,0,FALSE,"win",1.15971000000002,NA,"FALSE","FALSE",-0.102226199999562,1.05924679999998,-0.91754149999997,TRUE
221604,1,60,1000,128,-1000,0,0,1,0,560.9340529,1.8,563.0113044,564.038735300001,1.11651110000003,1,1.52,565.6713802,566.732727000001,2021-05-17 20:54:22,"2-Feb-2021","pitt","accrej",569.2959517,571.1825338,1.76,0,FALSE,"win",4.51115359999994,NA,"FALSE","FALSE",0.0890801999989939,0.112644899999054,0.124571500000002,FALSE
221604,1,61,1000,181,180,1,0,1,0,569.2959517,1.76,571.1825338,572.064315000001,0.779731200000242,1,4.26,577.3739448,0,2021-05-17 20:54:22,"2-Feb-2021","pitt","new_learn",577.4525359,581.0932949,3.41,0,FALSE,"win",2.71935010000004,NA,"FALSE","FALSE",-0.102050000000759,1.04962979999902,-0.92140889999996,TRUE
221604,1,62,1000,73,-1000,1,0,-1,0,577.4525359,3.41,581.0932949,583.113238800001,2.10717329999989,1,2.3,585.4565658,0,2021-05-17 20:54:22,"2-Feb-2021","pitt","new_learn",586.5842076,589.8059507,3.05,0,FALSE,"loss",3.34938490000002,NA,"FALSE","FALSE",0.0872293999989364,0.0433269999990671,0.127641799999992,FALSE
221604,1,63,1000,39,-1000,1,1,1,0,586.5842076,3.05,589.8059507,590.8669823,1.07394509999995,1,1.53,592.4374801,0,2021-05-17 20:54:22,"2-Feb-2021","pitt","new_learn",593.5364837,595.8503533,2.16,0,FALSE,"win",2.41287320000004,NA,"FALSE","FALSE",0.0129134999999716,0.0404978000000256,0.0990035999999463,FALSE
221604,1,64,1000,180,182,0,1,0,0,593.5364837,2.16,595.8503533,596.8180375,0.865812099999857,1,3.14,601.058287,0,2021-05-17 20:54:22,"2-Feb-2021","pitt","accrej",601.1443523,604.1551305,2.71,0,FALSE,"nothing",2.09684350000009,NA,"FALSE","FALSE",-0.101872100000037,1.10024950000002,-0.913934699999913,TRUE
221604,1,65,1000,32,-1000,0,1,1,0,601.1443523,2.71,604.1551305,605.8564822,1.79056139999921,1,1.39,607.3740616,0,2021-05-17 20:54:22,"2-Feb-2021","pitt","accrej",608.4707346,612.3615815,3.75,0,FALSE,"win",3.98751990000005,NA,"FALSE","FALSE",0.0892096999992917,0.127579400000059,0.0966730000000098,FALSE
221604,1,66,1000,182,180,0,0,0,0,608.4707346,3.75,612.3615815,613.4983548,1.03461659999994,1,5.3,619.9124259,0,2021-05-17 20:54:22,"2-Feb-2021","pitt","accrej",619.992167,623.8017894,3.71,0,FALSE,"nothing",2.88936349999995,NA,"FALSE","FALSE",-0.102156700000019,1.11407110000005,-0.920258900000022,TRUE
221604,1,67,1000,182,181,1,1,1,0,619.992167,3.71,623.8017894,624.6387319,0.734366499999851,1,2.05,628.2735622,0,2021-05-17 20:54:22,"2-Feb-2021","pitt","new_learn",628.3511346,630.6238323,2,0,FALSE,"win",1.35027009999999,NA,"FALSE","FALSE",-0.102576000000226,1.58483030000002,-0.922427599999992,TRUE
221604,1,68,1000,53,-1000,1,0,1,0,628.3511346,2,630.6238323,631.9910877,1.45503480000025,1,5.12,637.2244301,0,2021-05-17 20:54:22,"2-Feb-2021","pitt","new_learn",638.3063258,643.5255926,4.86,0,FALSE,"win",5.30116250000003,NA,"FALSE","FALSE",0.0877794000002736,0.113342399999965,0.0818957000000182,FALSE
221604,1,69,1000,64,-1000,1,0,1,0,638.3063258,4.86,643.5255926,645.0982079,1.65782929999932,1,3.24,648.4550514,0,2021-05-17 20:54:22,"2-Feb-2021","pitt","new_learn",649.5120205,651.8303991,2.22,0,FALSE,"win",2.37534770000002,NA,"FALSE","FALSE",0.0852139999992678,0.116843499999959,0.0569690999999466,FALSE
221604,1,70,1000,180,181,0,1,1,0,649.5120205,2.22,651.8303991,652.7722922,0.839737299999797,1,1.21,656.4383756,656.4691865,2021-05-17 20:54:22,"2-Feb-2021","pitt","accrej",659.0318664,662.2326206,2.85,0,FALSE,"win",4.79424500000005,NA,"FALSE","FALSE",-0.102155800000219,2.4560833999999,-0.906509199999959,TRUE
221604,1,71,1000,51,-1000,0,0,-1,0,659.0318664,2.85,662.2326206,664.3169143,2.2317421000007,0,2.91,667.2709508,0,2021-05-17 20:54:22,"2-Feb-2021","pitt","accrej",668.3548754,671.4137515,2.87,0,FALSE,"loss",3.14280069999995,NA,"FALSE","FALSE",0.147448400000711,0.0440365000000611,0.0839245999999321,FALSE
221604,1,72,1000,181,182,0,0,1,0,668.3548754,2.87,671.4137515,672.5436149,1.02743370000007,1,3.42,677.0579223,0,2021-05-17 20:54:22,"2-Feb-2021","pitt","accrej",677.1470192,679.7722561,2.55,0,FALSE,"win",1.71433380000008,NA,"FALSE","FALSE",-0.102429699999907,1.09430740000005,-0.910903099999928,TRUE
221604,1,73,1000,180,181,1,1,-1,0,677.1470192,2.55,679.7722561,680.5810778,0.706946000000244,1,2.58,684.2531876,0,2021-05-17 20:54:22,"2-Feb-2021","pitt","new_learn",684.325009,688.6607299,4.29,0,FALSE,"loss",3.40754229999993,NA,"FALSE","FALSE",-0.101875699999709,1.0921098,-0.928178600000024,TRUE
221604,1,74,1000,182,181,1,1,1,0,684.325009,4.29,688.6607299,689.3955488,0.632446500000697,1,1.74,693.0473841,0,2021-05-17 20:54:22,"2-Feb-2021","pitt","new_learn",693.1175885,697.6423426,3.77,0,FALSE,"win",3.59495849999996,NA,"FALSE","FALSE",-0.102372399999353,1.91183530000001,-0.929795600000034,TRUE
221604,1,75,1000,44,-1000,1,1,1,0,693.1175885,3.77,697.6423426,698.9589487,1.8494197,1,5.07,704.0964726,0,2021-05-17 20:54:22,"2-Feb-2021","pitt","new_learn",705.1942048,709.0113451,3.59,0,FALSE,"win",3.9148725,NA,"FALSE","FALSE",0.532813600000056,0.0675238999999692,0.0977321999999958,FALSE
221604,1,76,1000,61,-1000,0,1,1,0,705.1942048,3.59,709.0113451,710.869107,1.89500080000016,0,5.25,716.165795200001,0,2021-05-17 20:54:22,"2-Feb-2021","pitt","accrej",717.2545762,719.4714129,1.95,0,FALSE,"win",2.30561769999906,NA,"FALSE","FALSE",0.0372389000001458,0.0466882000009718,0.0887809999990168,FALSE
221604,1,77,1000,102,-1000,0,1,-1,0,717.2545762,1.95,719.4714129,721.4657835,2.02457690000028,1,1.19,722.8435256,0,2021-05-17 20:54:22,"2-Feb-2021","pitt","accrej",723.9121529,726.5432182,2.37,0,FALSE,"loss",2.69969259999994,NA,"FALSE","FALSE",0.030206300000255,0.187742099999923,0.0686273000000028,FALSE
221604,1,78,1000,35,-1000,0,0,1,0,723.9121529,2.37,726.5432182,727.645325,1.12403109999923,1,4.61,732.3767539,0,2021-05-17 20:54:22,"2-Feb-2021","pitt","accrej",733.4295235,738.0030447,4.38,0,FALSE,"win",4.62629079999999,NA,"FALSE","FALSE",0.0219242999992286,0.121428900000069,0.0527695999999196,FALSE
221604,1,79,1000,181,180,1,0,1,0,733.4295235,4.38,738.0030447,739.0707288,0.965145799999846,1,1.23,742.6646739,0,2021-05-17 20:54:22,"2-Feb-2021","pitt","new_learn",742.7497692,746.6779343,3.11,0,FALSE,"win",3.01326039999992,NA,"FALSE","FALSE",-0.102538300000105,2.36394510000002,-0.914904700000079,TRUE
221604,1,80,1000,100,-1000,1,0,0,0,742.7497692,3.11,746.6779343,747.6511951,1.64617490000001,1,1.04,748.7836355,749.816629200001,2021-05-17 20:54:22,"2-Feb-2021","pitt","new_learn",752.3783352,755.880045800001,3.22,0,FALSE,"nothing",6.09641030000103,NA,"FALSE","FALSE",0.672914099999962,0.0924403999999868,0.094699700000092,FALSE
221604,1,81,1000,45,-1000,1,0,-1,0,752.3783352,3.22,755.880045800001,757.1368659,1.30346280000049,0,3.08,760.3128911,0,2021-05-17 20:54:22,"2-Feb-2021","pitt","new_learn",761.3661988,764.3262001,2.79,0,FALSE,"loss",3.01330900000005,NA,"FALSE","FALSE",0.046642700001486,0.0960251999999855,0.0533077000000048,FALSE
221604,1,82,1000,180,182,0,1,0,0,761.3661988,2.79,764.3262001,765.4585038,1.02998299999945,1,4.59,771.1458108,0,2021-05-17 20:54:22,"2-Feb-2021","pitt","accrej",771.2271741,778.2067956,6.91,0,FALSE,"nothing",6.06098479999992,NA,"FALSE","FALSE",-0.102320700000516,1.097307,-0.918636700000093,TRUE
221604,1,83,1000,181,182,0,0,0,0,771.2271741,6.91,778.2067956,779.1984461,0.889452899999924,1,1.85,782.8047091,0,2021-05-17 20:54:22,"2-Feb-2021","pitt","accrej",782.8529996,787.9223143,5,0,FALSE,"nothing",4.11760520000007,NA,"FALSE","FALSE",-0.102197600000068,1.75626299999999,-0.951709499999993,TRUE
221604,1,84,1000,182,180,0,0,1,0,782.8529996,5,787.9223143,788.9254174,0.900892999999996,1,4.47,794.4470952,0,2021-05-17 20:54:22,"2-Feb-2021","pitt","accrej",NA,NA,NA,NA,FALSE,"win",NA,NA,"FALSE",NA,-0.10221009999998,1.05167779999999,NA,NA
221604,2,1,1001,184,183,1,0,1,0,2.7042234999999,3.26,6.04594650000035,8.16391370000019,2.01613029999953,1,3.66,12.9430542,0,2021-05-17 20:54:22,"2-Feb-2021","pitt","new_learn",13.0337405999999,17.7912833,3.8,0,FALSE,"win",3.8482291,NA,"FALSE","FALSE",-0.10183690000031,1.11914049999981,-0.9093136000001,TRUE
221604,2,2,1001,19,-1000,1,0,-1,0,13.0337405999999,3.8,17.7912833,19.1415232999998,2.11988060000022,1,1.55,20.7395993999999,0,2021-05-17 20:54:22,"2-Feb-2021","pitt","new_learn",21.8249618999998,24.6715452999997,2.53,0,FALSE,"loss",2.9319458999998,NA,"FALSE","FALSE",0.769640600000419,0.0480761000000989,0.0853624999998992,FALSE
221604,2,3,1001,31,-1000,1,0,0,0,21.8249618999998,2.53,24.6715452999997,26.0390991000004,1.39900140000009,1,1.33,27.4196061000002,0,2021-05-17 20:54:22,"2-Feb-2021","pitt","new_learn",28.4720356999997,31.6338451000001,3.02,0,FALSE,"nothing",3.2142389999999,NA,"FALSE","FALSE",0.0314475999993906,0.0505069999998007,0.0524295999995026,FALSE
221604,2,4,1001,183,184,0,1,1,0,28.4720356999997,3.02,31.6338451000001,32.7870591000001,1.05120739999984,1,4.64,38.5594420999996,0,2021-05-17 20:54:22,"2-Feb-2021","pitt","accrej",38.6271600999999,43.7086793999997,4.98,0,FALSE,"win",4.1492373000001,NA,"FALSE","FALSE",-0.102006600000158,1.1323829999995,-0.932281999999702,TRUE
221604,2,5,1001,185,183,0,0,1,0,38.6271600999999,4.98,43.7086793999997,44.8224763999997,1.01137970000036,1,4.14,50.0184723000002,0,2021-05-17 20:54:22,"2-Feb-2021","pitt","accrej",50.0659457000002,56.2506786000004,5.32,0,FALSE,"win",5.2322063000002,NA,"FALSE","FALSE",-0.102417299999638,1.0559959000005,-0.952526599999999,TRUE
221604,2,6,1001,36,-1000,0,0,1,0,50.0659457000002,5.32,56.2506786000004,57.6581944999998,2.09553459999916,0,4.67,62.4449488,0,2021-05-17 20:54:22,"2-Feb-2021","pitt","accrej",63.5010043000002,66.6075234999998,2.1,0,FALSE,"win",3.1625746999998,NA,"FALSE","FALSE",0.688018699999757,0.116754300000196,0.0560555000001983,FALSE
221604,2,7,1001,27,-1000,1,0,-1,0,63.5010043000002,2.1,66.6075234999998,67.9051409000003,1.9895462000004,0,1.77,69.7321738000001,0,2021-05-17 20:54:22,"2-Feb-2021","pitt","new_learn",70.8212934000003,73.7473252999998,2.75,0,FALSE,"loss",3.0151514999997,NA,"FALSE","FALSE",0.691928799999896,0.0570328999997969,0.0891196000002026,FALSE
221604,2,8,1001,184,185,1,1,-1,0,70.8212934000003,2.75,73.7473252999998,75.6384403000002,1.78877009999997,0,2.33,79.2158146000002,0,2021-05-17 20:54:22,"2-Feb-2021","pitt","new_learn",79.314069,83.6124706999999,4.18,0,FALSE,"loss",3.3966560999997,NA,"FALSE","FALSE",-0.102344900000427,1.2473743,-0.901745600000197,TRUE
221604,2,9,1001,185,184,1,1,1,0,79.314069,4.18,83.6124706999999,84.8097901000001,1.09556880000036,1,1.86,88.4097854000001,0,2021-05-17 20:54:22,"2-Feb-2021","pitt","new_learn",88.4940117999995,91.4095660000003,1.97,0,FALSE,"win",1.99978060000019,NA,"FALSE","FALSE",-0.101750599999837,1.7399953,-0.915773600000605,TRUE
221604,2,10,1001,29,-1000,0,0,-1,0,88.4940117999995,1.97,91.4095660000003,92.6368544999996,1.95604589999948,1,4.54,97.2740991999999,98.3015082000002,2021-05-17 20:54:22,"2-Feb-2021","pitt","accrej",100.8805462,105.3718798,3.54,0,FALSE,"loss",7.09778060000011,NA,"FALSE","FALSE",0.728757400000176,0.0972447000002887,0.106447000000102,FALSE
221604,2,11,1001,74,-1000,0,0,0,0,100.8805462,3.54,105.3718798,106.387125,1.73525059999974,1,4.4,110.9067529,0,2021-05-17 20:54:22,"2-Feb-2021","pitt","accrej",111.9927811,114.0814263,1.91,0,FALSE,"nothing",2.1746734,NA,"FALSE","FALSE",0.720005399999745,0.119627899999998,0.0860282000000012,FALSE
221604,2,12,1001,183,185,0,0,-1,0,111.9927811,1.91,114.0814263,115.4304538,1.24667700000009,0,2.91,119.4225056,0,2021-05-17 20:54:22,"2-Feb-2021","pitt","accrej",119.5071624,122.9279417,2.53,0,FALSE,"loss",2.50543610000001,NA,"FALSE","FALSE",-0.102350499999901,1.0820518,-0.915343199999995,TRUE
221604,2,13,1001,70,-1000,1,0,1,0,119.5071624,2.53,122.9279417,124.4124036,2.18214830000034,1,1.79,126.2527086,0,2021-05-17 20:54:22,"2-Feb-2021","pitt","new_learn",127.3387033,130.392687,2.95,0,FALSE,"win",3.13997839999999,NA,"FALSE","FALSE",0.69768640000034,0.0503049999999945,0.0859947000000005,FALSE
221604,2,14,1001,185,183,1,1,1,0,127.3387033,2.95,130.392687,132.2377653,1.74334030000045,0,1.03,135.8451728,0,2021-05-17 20:54:22,"2-Feb-2021","pitt","new_learn",135.8913878,140.133136599999,3.31,0,FALSE,"win",3.28796379999901,NA,"FALSE","FALSE",-0.101737999999562,2.57740749999999,-0.953785000000011,TRUE
221604,2,15,1001,66,-1000,1,0,-1,0,135.8913878,3.31,140.133136599999,141.4113191,2.03577390000009,0,2.95,144.4602176,0,2021-05-17 20:54:22,"2-Feb-2021","pitt","new_learn",145.5433887,148.0399732,2.3,0,FALSE,"loss",2.5797556,NA,"FALSE","FALSE",0.75759139999911,0.0988985000000184,0.0831711000000155,FALSE
221604,2,16,1001,184,183,0,0,1,0,145.5433887,2.3,148.0399732,149.0110508,0.869108100000631,1,2.76,152.8838702,0,2021-05-17 20:54:22,"2-Feb-2021","pitt","accrej",152.9328005,157.5978801,4.59,0,FALSE,"win",3.71400990000001,NA,"FALSE","FALSE",-0.10196949999937,1.11281940000001,-0.951069699999977,TRUE
221604,2,17,1001,185,184,0,1,1,0,152.9328005,4.59,157.5978801,158.4946349,0.794239899999411,1,1.36,162.1776174,0,2021-05-17 20:54:22,"2-Feb-2021","pitt","accrej",162.2968947,164.3469543,2,0,FALSE,"win",1.16933689999999,NA,"FALSE","FALSE",-0.102514900000585,2.32298249999999,-0.880722700000007,TRUE
221604,2,18,1001,183,185,0,0,0,0,162.2968947,2,164.3469543,165.2770857,0.828108799999427,0,4.76,171.1716384,0,2021-05-17 20:54:22,"2-Feb-2021","pitt","accrej",171.2445662,174.4420872,2.35,0,FALSE,"nothing",2.2704488,NA,"FALSE","FALSE",-0.102022600000566,1.13455270000003,-0.927072199999998,TRUE
221604,2,19,1001,82,-1000,1,0,1,0,171.2445662,2.35,174.4420872,175.4470175,1.68133820000003,1,1.39,176.9466116,0,2021-05-17 20:54:22,"2-Feb-2021","pitt","new_learn",178.0295367,182.8694036,4.69,0,FALSE,"win",4.92279199999999,NA,"FALSE","FALSE",0.676407900000046,0.109594100000038,0.0829250999999829,FALSE
221604,2,20,1001,183,184,1,1,1,0,178.0295367,4.69,182.8694036,183.8285922,0.856681799999933,1,1.03,187.4775647,187.5340843,2021-05-17 20:54:22,"2-Feb-2021","pitt","new_learn",190.0956199,192.7225283,2.52,0,FALSE,"win",4.24496360000001,NA,"FALSE","FALSE",-0.102506800000072,2.61897249999998,-0.881944799999985,TRUE
221604,2,21,1001,184,185,1,0,1,0,190.0956199,2.52,192.7225283,193.6683471,0.843562099999872,1,4.86,199.6362312,0,2021-05-17 20:54:22,"2-Feb-2021","pitt","new_learn",199.7223149,203.0686244,2.35,0,FALSE,"win",2.43239320000001,NA,"FALSE","FALSE",-0.10225670000014,1.10788409999998,-0.913916300000011,TRUE
221604,2,22,1001,56,-1000,0,0,0,0,199.7223149,2.35,203.0686244,204.1237533,1.88171460000012,1,1.46,205.7228888,0,2021-05-17 20:54:22,"2-Feb-2021","pitt","accrej",206.8129357,211.5750426,4.62,0,FALSE,"nothing",4.8521538,NA,"FALSE","FALSE",0.82658570000012,0.139135499999981,0.0900469000000044,FALSE
221604,2,23,1001,183,185,0,0,1,0,206.8129357,4.62,211.5750426,212.9309335,1.25323640000079,0,5.12,219.1232358,0,2021-05-17 20:54:22,"2-Feb-2021","pitt","accrej",219.2015671,221.9028016,1.81,0,FALSE,"win",1.7795658,NA,"FALSE","FALSE",-0.10265449999923,1.07230229999999,-0.921668699999998,TRUE
221604,2,24,1001,21,-1000,0,0,-1,0,219.2015671,1.81,221.9028016,222.9242242,1.73508439999932,0,2.34,225.3083173,0,2021-05-17 20:54:22,"2-Feb-2021","pitt","accrej",226.3951089,229.4726668,2.82,0,FALSE,"loss",3.16434950000001,NA,"FALSE","FALSE",0.713661799999326,0.0440930999999978,0.086791599999998,FALSE
221604,2,25,1001,95,-1000,1,0,1,0,226.3951089,2.82,229.4726668,231.05886,1.61447130000033,1,4.58,235.6996392,0,2021-05-17 20:54:22,"2-Feb-2021","pitt","new_learn",236.758298,242.4290095,4.71,0,FALSE,"win",5.7293703,NA,"FALSE","FALSE",0.0282781000003332,0.0607791999999847,0.0586587999999892,FALSE
221604,2,26,1001,84,-1000,1,0,1,0,236.758298,4.71,242.4290095,243.5731767,1.85918969999966,0,1.85,245.5278719,0,2021-05-17 20:54:22,"2-Feb-2021","pitt","new_learn",246.6134363,249.4393777,2.64,0,FALSE,"win",2.91150579999999,NA,"FALSE","FALSE",0.715022499999662,0.104695200000009,0.0855643999999813,FALSE
221604,2,27,1001,183,184,1,1,0,0,246.6134363,2.64,249.4393777,250.6443231,1.10274780000054,1,1.14,254.2500246,0,2021-05-17 20:54:22,"2-Feb-2021","pitt","new_learn",254.330197,257.4431103,2.06,0,FALSE,"nothing",2.19308570000001,NA,"FALSE","FALSE",-0.102197599999474,2.46570149999999,-0.919827599999991,TRUE
221604,2,28,1001,80,-1000,0,0,0,0,254.330197,2.06,257.4431103,258.688906,2.06879750000007,1,1.6,260.335139,0,2021-05-17 20:54:22,"2-Feb-2021","pitt","accrej",261.4189775,263.4331613,1.75,0,FALSE,"nothing",2.09802229999997,NA,"FALSE","FALSE",0.823001800000096,0.0462330000000293,0.0838384999999562,FALSE
221604,2,29,1001,94,-1000,0,0,1,0,261.4189775,1.75,263.4331613,264.3648206,0.959693399999196,1,4.61,269.0225839,0,2021-05-17 20:54:22,"2-Feb-2021","pitt","accrej",270.1053385,272.7327454,2.51,0,FALSE,"win",2.71016150000003,NA,"FALSE","FALSE",0.0280340999992176,0.0477632999999855,0.0827546000000439,FALSE
221604,2,30,1001,184,183,0,0,1,0,270.1053385,2.51,272.7327454,273.9107807,1.07636900000034,1,1.68,277.5511573,277.6064252,2021-05-17 20:54:22,"2-Feb-2021","pitt","accrej",280.1725484,282.925529,1.87,0,FALSE,"win",4.37437169999998,NA,"FALSE","FALSE",-0.101666299999636,1.96037660000002,-0.878608900000017,TRUE
221604,2,31,1001,97,-1000,1,0,1,0,280.1725484,1.87,282.925529,283.8785983,1.6244772,1,4.4,288.4047443,0,2021-05-17 20:54:22,"2-Feb-2021","pitt","new_learn",289.4594474,292.5954958,2.22,0,FALSE,"win",3.19075149999998,NA,"FALSE","FALSE",0.671407899999962,0.126146000000006,0.0547030999999834,FALSE
221604,2,32,1001,120,-1000,1,0,-1,0,289.4594474,2.22,292.5954958,294.0879342,2.20842809999976,0,5.08,299.2066981,0,2021-05-17 20:54:22,"2-Feb-2021","pitt","new_learn",300.2608587,302.6792872,2.23,0,FALSE,"loss",2.47258909999999,NA,"FALSE","FALSE",0.715989699999734,0.0387638999999922,0.0541605999999888,FALSE
221604,2,33,1001,184,185,1,0,1,0,300.2608587,2.23,302.6792872,303.5741455,0.7930307000006,1,4.97,309.5967593,0,2021-05-17 20:54:22,"2-Feb-2021","pitt","new_learn",309.6812197,313.5762696,3.84,0,FALSE,"win",2.97951030000002,NA,"FALSE","FALSE",-0.10182759999941,1.05261379999996,-0.915539599999988,TRUE
221604,2,34,1001,185,184,0,1,-1,0,309.6812197,3.84,313.5762696,314.364494,0.685827100000097,1,5.05,320.522791,0,2021-05-17 20:54:22,"2-Feb-2021","pitt","accrej",320.575045,322.6745032,1.97,0,FALSE,"loss",1.15171220000002,NA,"FALSE","FALSE",-0.102397299999893,1.10829699999999,-0.947745999999995,TRUE
221604,2,35,1001,185,183,0,1,-1,0,320.575045,1.97,322.6745032,323.8940654,1.11759929999971,0,4.98,329.9166984,0,2021-05-17 20:54:22,"2-Feb-2021","pitt","accrej",329.9952052,333.0954001,2.3,0,FALSE,"loss",2.17870170000003,NA,"FALSE","FALSE",-0.101962900000274,1.04263299999997,-0.921493199999986,TRUE
221604,2,36,1001,131,-1000,0,0,-1,0,329.9952052,2.3,333.0954001,334.0550767,1.53719730000012,1,1.6,335.6991785,0,2021-05-17 20:54:22,"2-Feb-2021","pitt","accrej",336.789071,340.6403891,3.5,0,FALSE,"loss",3.94121059999998,NA,"FALSE","FALSE",0.577520700000154,0.0441018000000213,0.0898924999999622,FALSE
221604,2,37,1001,30,-1000,1,0,-1,0,336.789071,3.5,340.6403891,341.6527734,1.08187510000062,0,2.98,344.6918392,0,2021-05-17 20:54:22,"2-Feb-2021","pitt","new_learn",345.7757322,347.7634642,1.84,0,FALSE,"loss",2.07162499999998,NA,"FALSE","FALSE",0.069490800000612,0.0590657999999848,0.0838929999999891,FALSE
221604,2,38,1001,183,185,1,0,-1,0,345.7757322,1.84,347.7634642,348.7867134,0.920733899999505,0,2.23,352.3684689,0,2021-05-17 20:54:22,"2-Feb-2021","pitt","new_learn",352.4255579,354.950664,2.43,0,FALSE,"loss",1.58219510000004,NA,"FALSE","FALSE",-0.102515300000504,1.35175549999997,-0.942910999999981,TRUE
221604,2,39,1001,184,183,1,0,1,0,352.4255579,2.43,354.950664,355.8535442,0.800465899999836,1,3.77,360.7297373,0,2021-05-17 20:54:22,"2-Feb-2021","pitt","new_learn",360.8094924,365.0960792,3.33,0,FALSE,"win",3.36634190000001,NA,"FALSE","FALSE",-0.102414300000134,1.10619310000004,-0.9202449,TRUE
221604,2,40,1001,88,-1000,0,0,1,0,360.8094924,3.33,365.0960792,366.259802,1.89061029999993,1,3.96,370.3232073,371.3549885,2021-05-17 20:54:22,"2-Feb-2021","pitt","accrej",373.9139481,376.3464666,2.38,0,FALSE,"win",5.02325930000001,NA,"FALSE","FALSE",0.72688749999997,0.10340530000002,0.0907408000000487,FALSE
221604,2,41,1001,183,184,0,1,1,0,373.9139481,2.38,376.3464666,377.4887365,1.03971749999982,1,3.77,382.3153748,0,2021-05-17 20:54:22,"2-Feb-2021","pitt","accrej",382.3983456,389.0787019,5.87,0,FALSE,"win",5.76332710000003,NA,"FALSE","FALSE",-0.102552400000211,1.05663829999997,-0.917029199999945,TRUE
221604,2,42,1001,113,-1000,0,1,1,0,382.3983456,5.87,389.0787019,390.2686415,1.86444549999942,1,1.42,391.7752229,0,2021-05-17 20:54:22,"2-Feb-2021","pitt","accrej",392.8758873,396.3581795,3.36,0,FALSE,"win",3.58295659999999,NA,"FALSE","FALSE",0.674505899999418,0.0865814,0.100664399999971,FALSE
221604,2,43,1001,184,185,1,1,-1,0,392.8758873,3.36,396.3581795,397.5937338,1.13292649999948,0,3.24,401.9022851,0,2021-05-17 20:54:22,"2-Feb-2021","pitt","new_learn",401.9567011,404.6297845,1.77,0,FALSE,"loss",1.72749940000006,NA,"FALSE","FALSE",-0.10262780000051,1.06855129999997,-0.945583999999997,TRUE
221604,2,44,1001,79,-1000,1,0,1,0,401.9567011,1.77,404.6297845,405.856717,1.91444020000017,1,4.45,410.428859099999,0,2021-05-17 20:54:22,"2-Feb-2021","pitt","new_learn",411.4849128,413.5041755,1.87,0,FALSE,"win",2.07531640000099,NA,"FALSE","FALSE",0.687507700000195,0.122142099998996,0.0560537000010299,FALSE
221604,2,45,1001,185,184,1,1,1,0,411.4849128,1.87,413.5041755,414.3930703,0.786015300000145,1,2.69,418.1750385,0,2021-05-17 20:54:22,"2-Feb-2021","pitt","new_learn",418.2604781,420.9358259,1.78,0,FALSE,"win",1.76078739999997,NA,"FALSE","FALSE",-0.102879499999858,1.09196820000005,-0.914560400000028,TRUE
221604,2,46,1001,108,-1000,0,0,-1,0,418.2604781,1.78,420.9358259,422.5609261,2.31143000000066,0,1.12,423.7620494,0,2021-05-17 20:54:22,"2-Feb-2021","pitt","accrej",424.8219082,427.781788300001,2.79,0,FALSE,"loss",3.01973890000096,NA,"FALSE","FALSE",0.68632980000064,0.0811233000000016,0.0598587999999722,FALSE
221604,2,47,1001,185,183,0,0,-1,0,424.8219082,2.79,427.781788300001,429.4406504,1.55643659999987,1,0.95,433.114903399999,0,2021-05-17 20:54:22,"2-Feb-2021","pitt","accrej",433.202093899999,436.4187339,2.3,0,FALSE,"loss",2.30383050000103,NA,"FALSE","FALSE",-0.102425499999129,2.72425299999901,-0.91280949999998,TRUE
221604,2,48,1001,116,-1000,0,1,0,0,433.202093899999,2.3,436.4187339,438.413678299999,2.71980459999941,1,4.21,442.8096668,0,2021-05-17 20:54:22,"2-Feb-2021","pitt","accrej",443.871956499999,447.0270194,3.03,0,FALSE,"nothing",3.21735259999997,NA,"FALSE","FALSE",0.724860200000425,0.185988500001031,0.0622896999989848,FALSE
221604,2,49,1001,183,185,1,0,-1,0,443.871956499999,3.03,447.0270194,448.2082037,1.07938869999998,0,3.48,452.8025364,0,2021-05-17 20:54:22,"2-Feb-2021","pitt","new_learn",452.8900151,456.098196200001,2.32,0,FALSE,"loss",2.29565980000098,NA,"FALSE","FALSE",-0.101795600000061,1.11433269999998,-0.91252129999998,TRUE
221604,2,50,1001,124,-1000,1,0,1,0,452.8900151,2.32,456.098196200001,457.353266399999,1.97291609999957,1,4.05,461.532451999999,462.596003000001,2021-05-17 20:54:22,"2-Feb-2021","pitt","new_learn",465.153734699999,467.473979599999,2,0,FALSE,"win",4.94152759999997,NA,"FALSE","FALSE",0.717845900001582,0.129185600000028,0.121282699999995,FALSE
221604,2,51,1001,69,-1000,1,0,-1,0,465.153734699999,2,467.473979599999,468.718862199999,1.36624129999836,0,5.07,473.928339300001,0,2021-05-17 20:54:22,"2-Feb-2021","pitt","new_learn",474.9798945,478.2961963,2.22,0,FALSE,"loss",3.36785699999899,NA,"FALSE","FALSE",0.12135869999832,0.139477100002011,0.0515551999989725,FALSE
221604,2,52,1001,38,-1000,0,0,0,0,474.9798945,2.22,478.2961963,479.3930974,1.88394460000018,1,2.65,482.0844438,0,2021-05-17 20:54:22,"2-Feb-2021","pitt","accrej",483.1389638,490.749965700001,7.49,0,FALSE,"nothing",7.66552190000101,NA,"FALSE","FALSE",0.787043500000212,0.041346400000009,0.054520000000025,FALSE
221604,2,53,1001,183,184,0,1,0,0,483.1389638,7.49,490.749965700001,491.8911943,1.03754729999855,1,3.67,496.6230234,0,2021-05-17 20:54:22,"2-Feb-2021","pitt","accrej",496.7042083,500.164448899999,3.38,0,FALSE,"nothing",2.54142549999898,NA,"FALSE","FALSE",-0.10368130000046,1.06182910000001,-0.918815100000018,TRUE
221604,2,54,1001,184,183,0,0,1,0,496.7042083,3.38,500.164448899999,501.1939062,0.926695200001632,1,3.31,505.6171428,0,2021-05-17 20:54:22,"2-Feb-2021","pitt","accrej",505.6890351,508.117723900001,2.36,0,FALSE,"win",1.500581100001,NA,"FALSE","FALSE",-0.102762099999381,1.11323659999999,-0.928107699999998,TRUE
221604,2,55,1001,185,184,1,1,1,0,505.6890351,2.36,508.117723900001,509.249865100001,1.02951099999882,1,0.75,512.895484500001,0,2021-05-17 20:54:22,"2-Feb-2021","pitt","new_learn",512.977593199999,516.042919899999,3.01,0,FALSE,"win",2.14743539999802,NA,"FALSE","FALSE",-0.102630200001158,2.89561939999999,-0.917891300001997,TRUE
221604,2,56,1001,185,183,1,1,-1,0,512.977593199999,3.01,516.042919899999,517.6749005,1.52824880000117,0,3.09,521.8233299,0,2021-05-17 20:54:22,"2-Feb-2021","pitt","new_learn",521.8761715,526.7762535,3.96,0,FALSE,"loss",3.95292360000008,NA,"FALSE","FALSE",-0.103731799999873,1.05842939999991,-0.947158399999921,TRUE
221604,2,57,1001,121,-1000,1,0,1,0,521.8761715,3.96,526.7762535,527.699148199999,1.69117310000001,1,3.05,530.850538999999,0,2021-05-17 20:54:22,"2-Feb-2021","pitt","new_learn",531.929927699999,540.0769841,8.03,0,FALSE,"win",8.226445100001,NA,"FALSE","FALSE",0.768278400001118,0.101390800000104,0.0793886999999813,FALSE
221604,2,58,1001,184,185,0,0,1,0,531.929927699999,8.03,540.0769841,541.021340200001,0.842105899999297,1,0.88,544.674410699999,0,2021-05-17 20:54:22,"2-Feb-2021","pitt","accrej",544.730973600001,547.5531173,2.5,0,FALSE,"win",1.87870660000101,NA,"FALSE","FALSE",-0.102250200001663,2.77307049999808,-0.94343709999805,TRUE
221604,2,59,1001,23,-1000,0,0,-1,0,544.730973600001,2.5,547.5531173,548.5532635,1.09305820000009,1,4.23,552.869707100001,0,2021-05-17 20:54:22,"2-Feb-2021","pitt","accrej",553.952396799999,559.5280423,4.49,0,FALSE,"loss",5.65833519999899,NA,"FALSE","FALSE",0.0929120000001862,0.0864436000010755,0.0826896999978999,FALSE
221604,2,60,1001,57,-1000,0,0,-1,0,553.952396799999,4.49,559.5280423,560.777130099999,2.09308909999891,0,1.95,562.829756200001,563.8611146,2021-05-17 20:54:22,"2-Feb-2021","pitt","accrej",566.4213707,571.190965399999,4.71,0,FALSE,"loss",7.36120919999792,NA,"FALSE","FALSE",0.844001299999949,0.102626100001999,0.0916144999989683,FALSE
221604,2,61,1001,185,183,1,0,1,0,566.4213707,4.71,571.190965399999,572.317360700001,1.02419750000081,1,2.23,576.003835400001,0,2021-05-17 20:54:22,"2-Feb-2021","pitt","new_learn",576.076730700001,583.354896000001,7.18,0,FALSE,"win",6.35106059999998,NA,"FALSE","FALSE",-0.102197800001249,1.45647469999994,-0.927104699999973,TRUE
221604,2,62,1001,185,184,1,1,1,0,576.076730700001,7.18,583.354896000001,584.670356299999,1.21325459999935,1,1.6,588.2622813,0,2021-05-17 20:54:22,"2-Feb-2021","pitt","new_learn",588.3397828,592.5753804,4.15,0,FALSE,"win",3.31309909999993,NA,"FALSE","FALSE",-0.102205699998644,1.99192500000106,-0.922498500000074,TRUE
221604,2,63,1001,183,184,1,1,1,0,588.3397828,4.15,592.5753804,593.744472599999,1.06689759999972,1,1.24,597.389481599999,0,2021-05-17 20:54:22,"2-Feb-2021","pitt","new_learn",597.4344366,601.041536700001,3.25,0,FALSE,"win",2.65205510000192,NA,"FALSE","FALSE",-0.10219459999928,2.40500900000006,-0.955044999999018,TRUE
221604,2,64,1001,114,-1000,0,0,0,0,597.4344366,3.25,601.041536700001,602.422390199999,1.52223330000015,0,3.02,605.574878400001,0,2021-05-17 20:54:22,"2-Feb-2021","pitt","accrej",606.657846800001,610.558803,3.52,0,FALSE,"nothing",3.983924599999,NA,"FALSE","FALSE",0.141379800002139,0.132488200002058,0.082968400000027,FALSE
221604,2,65,1001,101,-1000,0,0,1,0,606.657846800001,3.52,610.558803,611.6904373,1.23602050000045,1,4.03,615.8352994,0,2021-05-17 20:54:22,"2-Feb-2021","pitt","accrej",616.917948099999,619.6171051,2.41,0,FALSE,"win",2.78180569999995,NA,"FALSE","FALSE",0.104386200000477,0.114862100000096,0.0826486999989129,FALSE
221604,2,66,1001,20,-1000,0,0,0,0,616.917948099999,2.41,619.6171051,621.001160899999,1.45342549999987,1,3.35,624.422440799999,0,2021-05-17 20:54:22,"2-Feb-2021","pitt","accrej",625.4800559,627.3689452,1.76,0,FALSE,"nothing",1.946504400001,NA,"FALSE","FALSE",0.0693697000008375,0.0712798999999222,0.0576151000010441,FALSE
221604,2,67,1001,183,185,1,1,1,0,625.4800559,1.76,627.3689452,628.739956400001,1.26725819999956,1,4.4,634.2152809,0,2021-05-17 20:54:22,"2-Feb-2021","pitt","new_learn",634.2627854,637.7616497,3.45,0,FALSE,"win",2.54636879999998,NA,"FALSE","FALSE",-0.103753000001461,1.07532449999906,-0.952495500000055,TRUE
221604,2,68,1001,184,183,1,0,1,0,634.2627854,3.45,637.7616497,638.6894254,0.825644599999578,1,1.97,642.343204299999,0,2021-05-17 20:54:22,"2-Feb-2021","pitt","new_learn",642.413604400001,645.072774,1.78,0,FALSE,"win",1.72956970000098,NA,"FALSE","FALSE",-0.102131100000406,1.68377889999897,-0.929599899998038,TRUE
221604,2,69,1001,42,-1000,1,0,-1,0,642.413604400001,1.78,645.072774,646.478196399999,2.0663325000005,0,4.88,651.496593,0,2021-05-17 20:54:22,"2-Feb-2021","pitt","new_learn",652.5819656,657.178441100001,4.28,0,FALSE,"loss",4.68184810000105,NA,"FALSE","FALSE",0.660910100001503,0.138396600000988,0.0853726000000279,FALSE
221604,2,70,1001,106,-1000,0,0,1,0,652.5819656,4.28,657.178441100001,658.159717799999,1.04338049999933,1,4.15,662.420972100001,663.4518623,2021-05-17 20:54:22,"2-Feb-2021","pitt","accrej",666.0124056,670.8821847,4.06,0,FALSE,"win",7.46121259999904,NA,"FALSE","FALSE",0.0621038000012959,0.111254300001974,0.0914334999989705,FALSE
221604,2,71,1001,118,-1000,0,0,-1,0,666.0124056,4.06,670.8821847,671.905651900001,1.65183190000062,1,2.04,674.052409399999,0,2021-05-17 20:54:22,"2-Feb-2021","pitt","accrej",675.1547154,677.645339500001,2.27,0,FALSE,"loss",2.59293010000204,NA,"FALSE","FALSE",0.628364699999683,0.106757499998025,0.102306000001022,FALSE
221604,2,72,1001,99,-1000,0,0,1,0,675.1547154,2.27,677.645339500001,679.1170678,1.48582139999962,0,0.92,680.096503500001,0,2021-05-17 20:54:22,"2-Feb-2021","pitt","accrej",681.1561692,683.829828600001,2.38,0,FALSE,"win",2.7333251,NA,"FALSE","FALSE",0.0140931000006479,0.0594357000010177,0.0596656999990728,FALSE
221604,2,73,1001,112,-1000,1,0,1,0,681.1561692,2.38,683.829828600001,684.776033800001,0.991423499999655,1,0.93,685.782538699999,0,2021-05-17 20:54:22,"2-Feb-2021","pitt","new_learn",686.8692132,691.604227399999,4.54,0,FALSE,"win",4.82168869999998,NA,"FALSE","FALSE",0.0452182999996464,0.0765048999980991,0.0866745000009814,FALSE
221604,2,74,1001,184,185,1,0,1,0,686.8692132,4.54,691.604227399999,692.5836069,0.878002200000992,1,2.34,696.207571999999,0,2021-05-17 20:54:22,"2-Feb-2021","pitt","new_learn",696.3092339,699.4567678,3.08,0,FALSE,"win",2.24919580000096,NA,"FALSE","FALSE",-0.101377299999967,1.28396509999902,-0.898338099999023,TRUE
221604,2,75,1001,185,183,1,1,-1,0,696.3092339,3.08,699.4567678,700.2378555,0.679599900000539,0,1.02,703.8357392,0,2021-05-17 20:54:22,"2-Feb-2021","pitt","new_learn",703.931992899999,707.042924199999,1.97,0,FALSE,"loss",2.20718499999896,NA,"FALSE","FALSE",-0.101487799999518,2.57788370000003,-0.903746300000989,TRUE
221604,2,76,1001,109,-1000,0,0,1,0,703.931992899999,1.97,707.042924199999,708.006026999999,1.87540049999916,1,3.66,711.719571399999,0,2021-05-17 20:54:22,"2-Feb-2021","pitt","accrej",712.803240499999,715.862602699999,2.95,0,FALSE,"win",3.14303129999996,NA,"FALSE","FALSE",0.912297699999159,0.053544400000078,0.0836690999999519,FALSE
221604,2,77,1001,183,185,0,1,-1,0,712.803240499999,2.95,715.862602699999,717.0034094,1.03969570000118,1,5.25,723.3229424,0,2021-05-17 20:54:22,"2-Feb-2021","pitt","accrej",723.395058,725.6944939,2.23,0,FALSE,"loss",1.37155150000001,NA,"FALSE","FALSE",-0.101110999999828,1.06953299999998,-0.927884400000039,TRUE
221604,2,78,1001,185,184,0,1,1,0,723.395058,2.23,725.6944939,726.474394999999,0.677859899999021,1,2.52,730.101720299999,0,2021-05-17 20:54:22,"2-Feb-2021","pitt","accrej",730.141578000001,733.1085129,2.83,0,FALSE,"win",2.00679260000106,NA,"FALSE","FALSE",-0.10204120000003,1.10732529999996,-0.960142299997983,TRUE
221604,2,79,1001,183,184,1,1,0,0,730.141578000001,2.83,733.1085129,733.904856699999,0.694879700000456,1,4.32,739.2957205,0,2021-05-17 20:54:22,"2-Feb-2021","pitt","new_learn",739.373281300001,743.7079942,3.96,0,FALSE,"nothing",3.41227370000001,NA,"FALSE","FALSE",-0.101464099998452,1.07086380000101,-0.922439199998962,TRUE
221604,2,80,1001,77,-1000,1,0,1,0,739.373281300001,3.96,743.7079942,745.4879382,1.89099280000119,1,3.51,749.0837477,750.1476081,2021-05-17 20:54:22,"2-Feb-2021","pitt","new_learn",752.7305483,755.002433899999,1.93,0,FALSE,"win",4.918686199999,NA,"FALSE","FALSE",0.11104880000119,0.0858094999999821,0.146800600000006,FALSE
221604,2,81,1001,104,-1000,1,0,-1,0,752.7305483,1.93,755.002433899999,756.2077591,1.4040557999997,1,2.49,758.909058400001,0,2021-05-17 20:54:22,"2-Feb-2021","pitt","new_learn",759.9943465,761.9865078,1.81,0,FALSE,"loss",2.07744939999907,NA,"FALSE","FALSE",0.198730599998729,0.211299300000974,0.0852880999990475,FALSE
221604,2,82,1001,184,185,0,0,1,0,759.9943465,1.81,761.9865078,762.9009795,0.812878299999284,1,4.03,767.976631400001,0,2021-05-17 20:54:22,"2-Feb-2021","pitt","accrej",768.0509045,771.475590599999,2.59,0,FALSE,"win",2.49895919999801,NA,"FALSE","FALSE",-0.101593400000638,1.04565190000108,-0.925726900000996,TRUE
221604,2,83,1001,63,-1000,0,0,-1,0,768.0509045,2.59,771.475590599999,772.791986099999,1.91434269999991,0,1.97,774.8168542,0,2021-05-17 20:54:22,"2-Feb-2021","pitt","accrej",775.8708286,781.0400374,5,0,FALSE,"loss",5.22318319999999,NA,"FALSE","FALSE",0.597947199999911,0.054868100000931,0.0539744000000155,FALSE
221604,2,84,1001,184,183,0,0,1,0,775.8708286,5,781.0400374,782.2162811,1.07428419999997,1,4.97,788.2965353,0,2021-05-17 20:54:22,"2-Feb-2021","pitt","accrej",NA,NA,NA,NA,FALSE,"win",NA,NA,"FALSE",NA,-0.101959500000016,1.11025419999999,NA,NA
221604,3,1,1002,187,186,1,0,1,0,2.65459310000006,2.36,5.22101380000095,6.91958049999994,1.59693390000029,1,4.26,12.206705300001,0,2021-05-17 20:54:22,"2-Feb-2021","pitt","new_learn",12.2897352,14.7271498000009,2.35,0,FALSE,"win",1.5204444999999,NA,"FALSE","FALSE",-0.1016327999987,1.02712480000106,-0.916970100000999,TRUE
221604,3,2,1002,186,188,1,0,-1,0,12.2897352,2.35,14.7271498000009,15.9387282000007,1.11070139999902,0,0.79,19.5351284000008,0,2021-05-17 20:54:22,"2-Feb-2021","pitt","new_learn",19.5775764000009,22.4278083999998,1.81,0,FALSE,"loss",1.892679999999,NA,"FALSE","FALSE",-0.10087700000078,2.8064002000001,-0.9575519999999,TRUE
221604,3,3,1002,18,-1000,1,0,-1,0,19.5775764000009,1.81,22.4278083999998,23.5971365000005,2.01930849999917,0,2.76,26.4463444000012,0,2021-05-17 20:54:22,"2-Feb-2021","pitt","new_learn",27.5309973000003,31.3282326999997,3.6,0,FALSE,"loss",3.8818882999985,NA,"FALSE","FALSE",0.849980399998473,0.089207900000698,0.084652899999103,FALSE
221604,3,4,1002,188,186,0,1,-1,0,27.5309973000003,3.6,31.3282326999997,32.4219537000008,0.991685200000575,0,1.85,36.0408657999997,0,2021-05-17 20:54:22,"2-Feb-2021","pitt","accrej",36.1088005000001,40.8778356000003,4.41,0,FALSE,"loss",3.8369698000006,NA,"FALSE","FALSE",-0.102035800000525,1.7689120999989,-0.9320652999996,TRUE
221604,3,5,1002,62,-1000,0,0,0,0,36.1088005000001,4.41,40.8778356000003,41.9401806000005,1.21440240000084,1,4.02,46.0346604000006,0,2021-05-17 20:54:22,"2-Feb-2021","pitt","accrej",47.1165729000004,49.8479908000008,2.58,0,FALSE,"nothing",2.8133304000002,NA,"FALSE","FALSE",0.15205740000064,0.0744798000000984,0.0819124999998024,FALSE
221604,3,6,1002,186,187,0,1,1,0,47.1165729000004,2.58,49.8479908000008,50.9990543000004,1.04888779999965,1,3.36,55.4946773000011,0,2021-05-17 20:54:22,"2-Feb-2021","pitt","accrej",55.5693050999998,59.1693656000007,3.52,0,FALSE,"win",2.6746882999996,NA,"FALSE","FALSE",-0.102175699999951,1.1356230000007,-0.925372200001298,TRUE
221604,3,7,1002,187,188,1,1,0,0,55.5693050999998,3.52,59.1693656000007,60.0896068000002,0.818558299999495,0,2.42,63.7391924000003,0,2021-05-17 20:54:22,"2-Feb-2021","pitt","new_learn",63.8452746000003,66.9279454000007,2.06,0,FALSE,"nothing",2.1887530000004,NA,"FALSE","FALSE",-0.1016829,1.2295856000001,-0.89391779999999,TRUE
221604,3,8,1002,125,-1000,1,1,0,0,63.8452746000003,2.06,66.9279454000007,68.6891211000002,2.5438978000002,1,1.15,69.9586204999996,0,2021-05-17 20:54:22,"2-Feb-2021","pitt","new_learn",71.0170865,75.1462807999997,3.94,0,FALSE,"nothing",4.1876603000001,NA,"FALSE","FALSE",0.782722100000702,0.119499399999398,0.0584660000004078,FALSE
221604,3,9,1002,188,187,1,0,1,0,71.0170865,3.94,75.1462807999997,76.3339962000009,1.08646890000091,0,1.77,79.9618941999997,0,2021-05-17 20:54:22,"2-Feb-2021","pitt","new_learn",80.0226351000001,85.3079342000001,5.24,0,FALSE,"win",4.3460400000004,NA,"FALSE","FALSE",-0.101246500000286,1.85789799999881,-0.939259099999603,TRUE
221604,3,10,1002,186,187,0,1,1,0,80.0226351000001,5.24,85.3079342000001,86.4043684999997,0.995032300001185,1,4.92,92.4203260000013,92.4814907,2021-05-17 20:54:22,"2-Feb-2021","pitt","accrej",95.065978300001,96.9384583999999,1.78,0,FALSE,"win",3.51813239999861,NA,"FALSE","FALSE",-0.101401999998416,1.09595750000159,-0.854347700000289,TRUE
221604,3,11,1002,187,186,0,0,1,0,95.065978300001,1.78,96.9384583999999,97.9868979000003,0.946427799999583,1,4.91,103.9792923,0,2021-05-17 20:54:22,"2-Feb-2021","pitt","accrej",104.033191,108.265376400001,4.18,0,FALSE,"win",3.28608410000101,NA,"FALSE","FALSE",-0.102011700000815,1.0823943999997,-0.946101299999995,TRUE
221604,3,12,1002,188,186,0,0,0,0,104.033191,4.18,108.265376400001,109.6314965,1.26454509999894,1,3.03,113.706296300001,0,2021-05-17 20:54:22,"2-Feb-2021","pitt","accrej",113.789977600001,117.3211808,2.3,0,FALSE,"nothing",2.61488449999899,NA,"FALSE","FALSE",-0.101575000000054,1.044799800001,-0.916318700000005,TRUE
221604,3,13,1002,136,-1000,1,0,-1,0,113.789977600001,2.3,117.3211808,118.2294365,1.93905760000052,1,2.95,121.264406600001,0,2021-05-17 20:54:22,"2-Feb-2021","pitt","new_learn",122.3442801,124.511332100001,1.86,0,FALSE,"loss",2.2469255,NA,"FALSE","FALSE",1.03080190000051,0.0849701000009873,0.0798734999990103,FALSE
221604,3,14,1002,43,-1000,1,0,1,0,122.3442801,1.86,124.511332100001,125.8018147,1.35743299999922,1,4.97,130.8934481,0,2021-05-17 20:54:22,"2-Feb-2021","pitt","new_learn",131.9741239,134.199043500001,2.08,0,FALSE,"win",2.30559540000101,NA,"FALSE","FALSE",0.0669504000002248,0.121633400000007,0.0806757999999945,FALSE
221604,3,15,1002,188,187,1,0,0,0,131.9741239,2.08,134.199043500001,135.146391100001,0.844920300000013,0,0.79,138.772965300001,0,2021-05-17 20:54:22,"2-Feb-2021","pitt","new_learn",138.8562179,142.1217891,3.13,0,FALSE,"nothing",2.348823799999,NA,"FALSE","FALSE",-0.102427299999988,2.8365742,-0.916747400001015,TRUE
221604,3,16,1002,187,188,0,0,-1,0,138.8562179,3.13,142.1217891,143.3704387,1.14510790000168,1,5.21,149.7156275,0,2021-05-17 20:54:22,"2-Feb-2021","pitt","accrej",149.751985700001,151.9833846,2.11,0,FALSE,"loss",1.26775709999998,NA,"FALSE","FALSE",-0.103541699998313,1.13518880000001,-0.96364179999901,TRUE
221604,3,17,1002,186,188,0,1,0,0,149.751985700001,2.11,151.9833846,153.0112756,0.926601200000732,1,2.71,156.7943908,0,2021-05-17 20:54:22,"2-Feb-2021","pitt","accrej",156.8575143,163.076910900001,6.12,0,FALSE,"nothing",5.28252010000099,NA,"FALSE","FALSE",-0.101289799999279,1.07311519999999,-0.936876500000011,TRUE
221604,3,18,1002,188,187,0,1,0,0,156.8575143,6.12,163.076910900001,164.1404833,0.960960200000045,1,1.2,167.7870097,0,2021-05-17 20:54:22,"2-Feb-2021","pitt","accrej",167.887963900001,170.330480800001,1.84,0,FALSE,"nothing",1.543471100001,NA,"FALSE","FALSE",-0.102612199998958,2.44652640000001,-0.899045799998987,TRUE
221604,3,19,1002,15,-1000,1,1,1,0,167.887963900001,1.84,170.330480800001,172.005917500001,2.14229420000083,1,4.22,176.3059287,0,2021-05-17 20:54:22,"2-Feb-2021","pitt","new_learn",177.418799000001,184.4686619,6.9,0,FALSE,"win",7.16273319999999,NA,"FALSE","FALSE",0.466857500000824,0.0800111999990065,0.112870300000992,FALSE
221604,3,20,1002,187,186,1,0,1,0,177.418799000001,6.9,184.4686619,185.5233818,0.952672800000073,1,4.3,190.955069,191.008273200001,2021-05-17 20:54:22,"2-Feb-2021","pitt","new_learn",193.5885788,195.567251800001,1.84,0,FALSE,"win",3.61218280000099,NA,"FALSE","FALSE",-0.102047099999936,1.13168719999999,-0.866490200000015,TRUE
221604,3,21,1002,186,188,1,1,-1,0,193.5885788,1.84,195.567251800001,196.590352500001,0.921758099999352,1,4.15,201.781275400001,0,2021-05-17 20:54:22,"2-Feb-2021","pitt","new_learn",201.8216161,205.2051858,2.35,0,FALSE,"loss",2.42391039999902,NA,"FALSE","FALSE",-0.101342600000634,1.0409229,-0.959659300000993,TRUE
221604,3,22,1002,16,-1000,0,0,-1,0,201.8216161,2.35,205.2051858,206.3511834,1.99256770000102,1,4.18,210.598110300001,0,2021-05-17 20:54:22,"2-Feb-2021","pitt","accrej",211.7096958,214.0695906,2.07,0,FALSE,"loss",2.471480299999,NA,"FALSE","FALSE",0.846570100001033,0.0669269000009933,0.111585499998995,FALSE
221604,3,23,1002,65,-1000,0,1,-1,0,211.7096958,2.07,214.0695906,216.0049065,2.00284300000021,1,4.74,220.8558257,0,2021-05-17 20:54:22,"2-Feb-2021","pitt","accrej",221.954475500001,224.9096188,2.63,0,FALSE,"loss",3.05379310000001,NA,"FALSE","FALSE",0.0675271000002038,0.110919199999984,0.0986498000009988,FALSE
221604,3,24,1002,87,-1000,0,0,-1,0,221.954475500001,2.63,224.9096188,225.9803314,1.1017197000001,0,3.24,229.3496216,0,2021-05-17 20:54:22,"2-Feb-2021","pitt","accrej",230.4192525,234.345684,3.6,0,FALSE,"loss",3.9960624,NA,"FALSE","FALSE",0.0310071000000927,0.129290199999986,0.0696308999999928,FALSE
221604,3,25,1002,55,-1000,1,0,0,0,230.4192525,3.6,234.345684,235.4255082,1.1252659999991,1,1.82,237.3687185,0,2021-05-17 20:54:22,"2-Feb-2021","pitt","new_learn",238.4525139,246.013470400001,7.21,0,FALSE,"nothing",7.64475190000101,NA,"FALSE","FALSE",0.0454417999991097,0.123210300000011,0.0837954000000138,FALSE
221604,3,26,1002,24,-1000,1,0,-1,0,238.4525139,7.21,246.013470400001,247.2477815,1.26108310000018,0,1.03,248.3994809,0,2021-05-17 20:54:22,"2-Feb-2021","pitt","new_learn",249.4495505,253.6767592,3.73,0,FALSE,"loss",4.27727830000001,NA,"FALSE","FALSE",0.0267720000011897,0.121699399999983,0.0500696000000005,FALSE
221604,3,27,1002,50,-1000,1,1,1,0,249.4495505,3.73,253.6767592,255.2518621,1.77896250000049,1,5.05,260.429147300001,0,2021-05-17 20:54:22,"2-Feb-2021","pitt","new_learn",261.548304400001,265.2121272,3.5,0,FALSE,"win",3.78297989999902,NA,"FALSE","FALSE",0.203859600000471,0.127285200000983,0.119157099999995,FALSE
221604,3,28,1002,188,186,0,0,0,0,261.548304400001,3.5,265.2121272,267.0547004,1.74069170000075,1,3.29,271.401931800001,0,2021-05-17 20:54:22,"2-Feb-2021","pitt","accrej",271.479473200001,273.4677123,1.85,0,FALSE,"nothing",1.06578049999899,NA,"FALSE","FALSE",-0.101881499999254,1.057231400001,-0.922458600000027,TRUE
221604,3,29,1002,187,188,0,0,1,0,271.479473200001,1.85,273.4677123,274.9061674,1.33605290000014,1,2.97,278.9135336,0,2021-05-17 20:54:22,"2-Feb-2021","pitt","accrej",279.0139714,282.1112075,2.69,0,FALSE,"win",2.19767389999998,NA,"FALSE","FALSE",-0.102402199999859,1.03736619999995,-0.899562199999991,TRUE
221604,3,30,1002,52,-1000,0,0,1,0,279.0139714,2.69,282.1112075,283.121299100001,1.17108829999961,1,0.91,284.163726000001,285.325305800001,2021-05-17 20:54:22,"2-Feb-2021","pitt","accrej",287.889018900001,294.015606700001,5.69,0,FALSE,"win",8.85188069999998,NA,"FALSE","FALSE",0.160996699998577,0.132426899999984,0.225292899999999,FALSE
221604,3,31,1002,127,-1000,1,0,-1,0,287.889018900001,5.69,294.015606700001,295.5515196,1.75026070000058,1,5.29,300.9721625,0,2021-05-17 20:54:22,"2-Feb-2021","pitt","new_learn",302.058434500001,307.7007756,5.24,0,FALSE,"loss",5.72861309999996,NA,"FALSE","FALSE",0.214347800001575,0.130642899999998,0.0862720000009745,FALSE
221604,3,32,1002,105,-1000,1,1,-1,0,302.058434500001,5.24,307.7007756,308.9871243,1.42373640000005,1,1.26,310.2940698,0,2021-05-17 20:54:22,"2-Feb-2021","pitt","new_learn",311.3808095,319.2919341,7.74,0,FALSE,"loss",7.9978643,NA,"FALSE","FALSE",0.137387700000031,0.0469454999999925,0.0867397000000096,FALSE
221604,3,33,1002,186,187,1,1,1,0,311.3808095,7.74,319.2919341,320.3543852,0.960022000001118,1,1.88,324.000393300001,0,2021-05-17 20:54:22,"2-Feb-2021","pitt","new_learn",324.075841600001,326.8116092,2.45,0,FALSE,"win",1.81121589999901,NA,"FALSE","FALSE",-0.102429099998914,1.76600810000099,-0.924551699999995,TRUE
221604,3,34,1002,110,-1000,0,0,1,0,324.075841600001,2.45,326.8116092,329.046567000001,2.31788070000039,1,4.89,333.991714400001,0,2021-05-17 20:54:22,"2-Feb-2021","pitt","accrej",335.074835200001,339.4145276,3.96,0,FALSE,"win",4.42281319999898,NA,"FALSE","FALSE",0.0829228999994056,0.0551474000000098,0.0831208000000174,FALSE
221604,3,35,1002,83,-1000,0,0,-1,0,335.074835200001,3.96,339.4145276,340.618171100001,1.30946249999943,1,5.08,345.754105600001,0,2021-05-17 20:54:22,"2-Feb-2021","pitt","accrej",346.856981000001,349.3648651,2.33,0,FALSE,"loss",2.61075949999895,NA,"FALSE","FALSE",0.105818999998408,0.0559345000000349,0.102875399999959,FALSE
221604,3,36,1002,187,186,0,0,1,0,346.856981000001,2.33,349.3648651,350.8811922,1.41412010000022,1,1.09,354.4801106,0,2021-05-17 20:54:22,"2-Feb-2021","pitt","accrej",354.553961200001,356.4511853,1.83,0,FALSE,"win",0.971074700000031,NA,"FALSE","FALSE",-0.102206999999792,2.50891840000003,-0.926149399998963,TRUE
221604,3,37,1002,188,187,1,1,-1,0,354.553961200001,1.83,356.4511853,358.016968,1.46478860000025,1,1.19,361.658840800001,0,2021-05-17 20:54:22,"2-Feb-2021","pitt","new_learn",361.7420387,365.279343100001,3.29,0,FALSE,"loss",2.6205023,NA,"FALSE","FALSE",-0.10099409999975,2.45187280000096,-0.91680210000095,TRUE
221604,3,38,1002,60,-1000,1,0,-1,0,361.7420387,3.29,365.279343100001,366.401887400001,1.1876513999996,0,2.56,369.0495871,0,2021-05-17 20:54:22,"2-Feb-2021","pitt","new_learn",370.1034418,373.8717124,3.36,0,FALSE,"loss",3.82212529999998,NA,"FALSE","FALSE",0.0651070999995844,0.087699699999007,0.053854699999988,FALSE
221604,3,39,1002,86,-1000,1,0,0,0,370.1034418,3.36,373.8717124,374.8367045,1.11520660000133,1,3.09,378.0390307,0,2021-05-17 20:54:22,"2-Feb-2021","pitt","new_learn",379.087905800001,381.5176293,2.31,0,FALSE,"nothing",2.4785986,NA,"FALSE","FALSE",0.150214500001312,0.112326200000041,0.0488751000009984,FALSE
221604,3,40,1002,187,188,0,0,1,0,379.087905800001,2.31,381.5176293,382.4391452,0.820485800000824,1,2.64,386.1258622,386.186405500001,2021-05-17 20:54:22,"2-Feb-2021","pitt","accrej",388.7463329,393.8701024,4.84,0,FALSE,"win",6.74424020000004,NA,"FALSE","FALSE",-0.10103009999915,1.046717,-0.879529299999945,TRUE
221604,3,41,1002,133,-1000,0,0,1,0,388.7463329,4.84,393.8701024,394.8617677,1.06875299999956,1,0.92,395.821099300001,0,2021-05-17 20:54:22,"2-Feb-2021","pitt","accrej",396.8935016,400.387848100001,3.2,0,FALSE,"win",3.56674880000003,NA,"FALSE","FALSE",0.0770876999995944,0.0393316000009918,0.0724022999989984,FALSE
221604,3,42,1002,119,-1000,0,0,1,0,396.8935016,3.2,400.387848100001,401.309292800001,0.939049599999635,1,3.05,404.479273200001,0,2021-05-17 20:54:22,"2-Feb-2021","pitt","accrej",405.5598242,407.6538636,1.93,0,FALSE,"win",2.17459039999903,NA,"FALSE","FALSE",0.01760489999964,0.119980399999974,0.0805509999989908,FALSE
221604,3,43,1002,186,187,1,1,1,0,405.5598242,1.93,407.6538636,408.507215600001,0.75228210000023,1,3.58,413.2080718,0,2021-05-17 20:54:22,"2-Feb-2021","pitt","new_learn",413.2980295,415.608098000001,2.25,0,FALSE,"win",1.40002620000098,NA,"FALSE","FALSE",-0.101069900000766,1.12085619999903,-0.910042300000043,TRUE
221604,3,44,1002,188,186,1,0,0,0,413.2980295,2.25,415.608098000001,416.6734364,0.962867300000653,1,1.01,420.3200039,0,2021-05-17 20:54:22,"2-Feb-2021","pitt","new_learn",420.363344000001,423.961064000001,3.53,0,FALSE,"nothing",2.64106010000097,NA,"FALSE","FALSE",-0.102471099998354,2.63656750000001,-0.956659899999011,TRUE
221604,3,45,1002,186,188,1,1,1,0,420.363344000001,3.53,423.961064000001,424.6319836,0.56896450000022,1,1.64,428.2314047,0,2021-05-17 20:54:22,"2-Feb-2021","pitt","new_learn",428.338375400001,431.356959000001,2.73,0,FALSE,"win",2.125554300001,NA,"FALSE","FALSE",-0.101955099998804,1.95942109999999,-0.893029299999,TRUE
221604,3,46,1002,81,-1000,0,0,-1,0,428.338375400001,2.73,431.356959000001,432.877771200001,1.60320820000015,0,3.44,436.3610424,0,2021-05-17 20:54:22,"2-Feb-2021","pitt","accrej",437.4095894,439.405363100001,1.86,0,FALSE,"loss",2.04432070000104,NA,"FALSE","FALSE",0.0823960000001269,0.0432711999989692,0.0485470000000419,FALSE
221604,3,47,1002,187,188,0,0,1,0,437.4095894,1.86,439.405363100001,440.4251076,0.918707799999538,1,1.74,444.0209638,0,2021-05-17 20:54:22,"2-Feb-2021","pitt","accrej",444.112003800001,448.3799915,3.99,0,FALSE,"win",3.35902770000001,NA,"FALSE","FALSE",-0.10103669999944,1.85585620000001,-0.908959999999013,TRUE
221604,3,48,1002,76,-1000,0,1,0,0,444.112003800001,3.99,448.3799915,449.952191800001,1.63380110000071,0,1.98,451.9977076,0,2021-05-17 20:54:22,"2-Feb-2021","pitt","accrej",453.088812600001,457.4178226,4.13,0,FALSE,"nothing",4.42011500000001,NA,"FALSE","FALSE",0.0616007999997237,0.065515799998991,0.0911050000009936,FALSE
221604,3,49,1002,186,188,1,1,1,0,453.088812600001,4.13,457.4178226,458.279266900001,0.76023720000012,1,1.08,461.8924929,0,2021-05-17 20:54:22,"2-Feb-2021","pitt","new_learn",461.9947598,467.0176993,4.74,0,FALSE,"win",4.12520640000002,NA,"FALSE","FALSE",-0.101207100000863,2.53322599999899,-0.897733099999982,TRUE
221604,3,50,1002,96,-1000,1,1,-1,0,461.9947598,4.74,467.0176993,467.947679000001,1.00199059999977,1,3.99,472.015165000001,473.056050900001,2021-05-17 20:54:22,"2-Feb-2021","pitt","new_learn",475.612689400001,477.6023367,1.88,0,FALSE,"loss",4.58717169999903,NA,"FALSE","FALSE",0.072010899998757,0.0774859999999649,0.0975243999999975,FALSE
221604,3,51,1002,186,187,1,1,1,0,475.612689400001,1.88,477.6023367,478.5863465,0.882678200001465,1,3.83,483.4782225,0,2021-05-17 20:54:22,"2-Feb-2021","pitt","new_learn",483.5597392,486.913664400001,3.05,0,FALSE,"win",2.43544190000097,NA,"FALSE","FALSE",-0.101331599998502,1.06187600000004,-0.918483299999991,TRUE
221604,3,52,1002,22,-1000,0,0,1,0,483.5597392,3.05,486.913664400001,487.8157178,0.984458099999756,1,1.44,489.3648822,0,2021-05-17 20:54:22,"2-Feb-2021","pitt","accrej",490.470898600001,493.767304700001,3.02,0,FALSE,"win",3.40242250000097,NA,"FALSE","FALSE",0.0824047000007225,0.109164399999997,0.10601640000101,FALSE
221604,3,53,1002,123,-1000,0,1,-1,0,490.470898600001,3.02,493.767304700001,494.996029600001,1.26155339999968,1,1.27,496.346803500001,0,2021-05-17 20:54:22,"2-Feb-2021","pitt","accrej",497.4384739,500.7856613,3.02,0,FALSE,"loss",3.43885779999903,NA,"FALSE","FALSE",0.0328284999996484,0.080773899999997,0.0916703999990318,FALSE
221604,3,54,1002,26,-1000,0,0,0,0,497.4384739,3.02,500.7856613,501.805172300001,1.10351649999939,1,5.17,507.0464914,0,2021-05-17 20:54:22,"2-Feb-2021","pitt","accrej",508.1379063,512.235475000001,3.97,0,FALSE,"nothing",4.188983600001,NA,"FALSE","FALSE",0.084005499998401,0.0713190999989592,0.091414900000018,FALSE
221604,3,55,1002,188,186,1,0,-1,0,508.1379063,3.97,512.235475000001,513.1778739,0.840537299998687,1,2.17,516.8395062,0,2021-05-17 20:54:22,"2-Feb-2021","pitt","new_learn",516.8877135,518.912021600001,1.89,0,FALSE,"loss",1.07251540000107,NA,"FALSE","FALSE",-0.101861600000347,1.49163229999999,-0.951792699999942,TRUE
221604,3,56,1002,188,187,1,1,1,0,516.8877135,1.89,518.912021600001,520.272536600001,1.25883099999919,1,5.21,526.566421,0,2021-05-17 20:54:22,"2-Feb-2021","pitt","new_learn",526.6427129,528.640456700001,1.89,0,FALSE,"win",1.07403570000099,NA,"FALSE","FALSE",-0.101684000000774,1.08388439999896,-0.923708099999999,TRUE
221604,3,57,1002,187,186,1,0,1,0,526.6427129,1.89,528.640456700001,529.5842352,0.84159770000042,1,4.81,535.4608432,0,2021-05-17 20:54:22,"2-Feb-2021","pitt","new_learn",535.531902000001,538.0627221,2.48,0,FALSE,"win",1.60187889999997,NA,"FALSE","FALSE",-0.102180799998564,1.06660800000009,-0.928941199999031,TRUE
221604,3,58,1002,188,187,0,1,1,0,535.531902000001,2.48,538.0627221,539.064698600001,0.900363600001583,1,4.55,544.6709938,0,2021-05-17 20:54:22,"2-Feb-2021","pitt","accrej",544.7433585,547.125956,2.14,0,FALSE,"win",1.45496219999995,NA,"FALSE","FALSE",-0.101612899999395,1.05629519999911,-0.92763530000002,TRUE
221604,3,59,1002,46,-1000,0,0,1,0,544.7433585,2.14,547.125956,548.444218300001,1.36653219999971,1,0.83,549.3902432,0,2021-05-17 20:54:22,"2-Feb-2021","pitt","accrej",550.4412636,552.704593600001,2,0,FALSE,"win",2.31435040000099,NA,"FALSE","FALSE",0.0482698999986719,0.116024899998934,0.0510203999999703,FALSE
221604,3,60,1002,90,-1000,0,1,0,0,550.4412636,2,552.704593600001,553.9838528,1.31374500000129,1,4.85,558.911371800001,559.9536622,2021-05-17 20:54:22,"2-Feb-2021","pitt","accrej",562.5123196,565.432603700001,2.6,0,FALSE,"nothing",5.52123189999998,NA,"FALSE","FALSE",0.0344858000022437,0.0775190000009616,0.100947799998949,FALSE
221604,3,61,1002,41,-1000,1,0,-1,0,562.5123196,2.6,565.432603700001,566.3216639,0.981817800000499,1,4.56,570.980223300001,0,2021-05-17 20:54:22,"2-Feb-2021","pitt","new_learn",572.035409600001,580.3818249,8.2,0,FALSE,"loss",8.40160159999903,NA,"FALSE","FALSE",0.092757600001505,0.0985594000010224,0.0551863000000594,FALSE
221604,3,62,1002,186,188,1,1,-1,0,572.035409600001,8.2,580.3818249,581.2745094,0.791149900000164,1,4.36,586.693196,0,2021-05-17 20:54:22,"2-Feb-2021","pitt","new_learn",586.734880800001,588.8648677,2.05,0,FALSE,"loss",1.17167170000005,NA,"FALSE","FALSE",-0.101534599999923,1.05868659999987,-0.958315199998992,TRUE
221604,3,63,1002,187,186,1,0,1,0,586.734880800001,2.05,588.8648677,589.9935539,1.02717510000002,1,1.7,593.572201200001,0,2021-05-17 20:54:22,"2-Feb-2021","pitt","new_learn",593.6199309,595.9141643,2.02,0,FALSE,"win",1.34196309999902,NA,"FALSE","FALSE",-0.101511100000041,1.87864730000092,-0.952270300001032,TRUE
221604,3,64,1002,92,-1000,0,0,0,0,593.6199309,2.02,595.9141643,597.5412529,1.66978840000047,1,1.11,598.687985100001,0,2021-05-17 20:54:22,"2-Feb-2021","pitt","accrej",599.789895100001,602.200153600001,2.28,0,FALSE,"nothing",2.51216850000003,NA,"FALSE","FALSE",0.0426998000004908,0.0367322000009835,0.101909999999975,FALSE
221604,3,65,1002,187,188,0,0,1,0,599.789895100001,2.28,602.200153600001,603.108679700001,0.806864099999075,1,2.73,606.9131519,0,2021-05-17 20:54:22,"2-Feb-2021","pitt","accrej",606.952817200001,610.4137532,3.16,0,FALSE,"win",2.50060129999997,NA,"FALSE","FALSE",-0.101662000000829,1.07447219999904,-0.960334699998953,TRUE
221604,3,66,1002,48,-1000,0,0,-1,0,606.952817200001,3.16,610.4137532,611.421803900001,1.07746079999924,0,1.78,613.2915973,0,2021-05-17 20:54:22,"2-Feb-2021","pitt","accrej",614.3753762,616.4874268,1.81,0,FALSE,"loss",2.19582949999995,NA,"FALSE","FALSE",0.0694100999982044,0.0897933999990528,0.0837788999999702,FALSE
221604,3,67,1002,67,-1000,1,0,1,0,614.3753762,1.81,616.4874268,617.5298994,1.05556600000091,1,0.71,618.2739554,0,2021-05-17 20:54:22,"2-Feb-2021","pitt","new_learn",619.3548921,621.447812500001,1.99,0,FALSE,"win",2.17385710000099,NA,"FALSE","FALSE",0.0130934000009135,0.0340559999999641,0.080936700000052,FALSE
221604,3,68,1002,186,187,1,1,1,0,619.3548921,1.99,621.447812500001,622.2221916,0.672262300000511,1,4.12,627.433003400001,0,2021-05-17 20:54:22,"2-Feb-2021","pitt","new_learn",627.526736100001,631.1785769,3.56,0,FALSE,"win",2.74557349999907,NA,"FALSE","FALSE",-0.102116799998499,1.09081180000101,-0.906267299999968,TRUE
221604,3,69,1002,188,186,1,0,0,0,627.526736100001,3.56,631.1785769,631.993772900001,0.713626300001124,1,4.8,637.892716300001,0,2021-05-17 20:54:22,"2-Feb-2021","pitt","new_learn",637.989711300001,640.8787694,2.66,0,FALSE,"nothing",1.98605309999903,NA,"FALSE","FALSE",-0.1015696999998,1.09894340000005,-0.903005000000007,TRUE
221604,3,70,1002,17,-1000,0,1,1,0,637.989711300001,2.66,640.8787694,642.1723031,1.34734329999992,1,5.09,647.3763108,648.4507049,2021-05-17 20:54:22,"2-Feb-2021","pitt","accrej",651.0019238,654.8389381,3.61,0,FALSE,"win",6.4626272999999,NA,"FALSE","FALSE",0.0538095999999082,0.114007700000002,0.12561299999993,FALSE
221604,3,71,1002,25,-1000,0,0,0,0,651.0019238,3.61,654.8389381,655.7557511,0.957111600000644,1,4.73,660.6167733,0,2021-05-17 20:54:22,"2-Feb-2021","pitt","accrej",661.665922600001,663.822199800001,1.81,0,FALSE,"nothing",2.20542650000107,NA,"FALSE","FALSE",0.0402986000005966,0.131022199999961,0.0491493000009768,FALSE
221604,3,72,1002,117,-1000,0,1,1,0,661.665922600001,1.81,663.822199800001,665.054221100001,1.29003530000045,1,1.38,666.5270191,0,2021-05-17 20:54:22,"2-Feb-2021","pitt","accrej",667.6389101,670.009725600001,2.12,0,FALSE,"win",2.48270650000109,NA,"FALSE","FALSE",0.0580140000005216,0.092797999998993,0.111891000000014,FALSE
221604,3,73,1002,72,-1000,1,0,0,0,667.6389101,2.12,670.009725600001,670.9979757,0.988431600000695,0,2.01,673.0828645,0,2021-05-17 20:54:22,"2-Feb-2021","pitt","new_learn",674.167273000001,677.3534187,2.96,0,FALSE,"nothing",3.27055419999999,NA,"FALSE","FALSE",0.000181500001758872,0.0748888000000534,0.0844085000010182,FALSE
221604,3,74,1002,74,-1000,1,0,-1,0,674.167273000001,2.96,677.3534187,678.385129,1.06413489999977,1,1.18,679.6660586,0,2021-05-17 20:54:22,"2-Feb-2021","pitt","new_learn",680.720724300001,682.944466200001,2.03,0,FALSE,"loss",2.27840760000095,NA,"FALSE","FALSE",0.0324245999997839,0.100929600000086,0.05466570000101,FALSE
221604,3,75,1002,186,188,1,1,0,0,680.720724300001,2.03,682.944466200001,683.691214800001,0.645451300000786,1,1.45,687.3266769,0,2021-05-17 20:54:22,"2-Feb-2021","pitt","new_learn",687.4190512,689.3926821,1.84,0,FALSE,"nothing",1.06600519999995,NA,"FALSE","FALSE",-0.10129729999926,2.18546209999897,-0.90762570000004,TRUE
221604,3,76,1002,187,188,0,0,1,0,687.4190512,1.84,689.3926821,690.424133100001,0.928939100000207,1,4.23,695.771039400001,0,2021-05-17 20:54:22,"2-Feb-2021","pitt","accrej",695.854964400001,699.2382932,3.09,0,FALSE,"win",2.46725379999907,NA,"FALSE","FALSE",-0.102511900000763,1.11690629999998,-0.916074999999978,TRUE
221604,3,77,1002,85,-1000,0,0,1,0,695.854964400001,3.09,699.2382932,700.368660400001,1.22440900000038,1,2.91,703.3604184,0,2021-05-17 20:54:22,"2-Feb-2021","pitt","accrej",704.4489302,709.0019968,4.22,0,FALSE,"win",4.64157840000007,NA,"FALSE","FALSE",0.0940417999994472,0.081757999999013,0.088511799999992,FALSE
221604,3,78,1002,89,-1000,0,0,-1,0,704.4489302,4.22,709.0019968,710.3489954,1.44606250000106,1,4.62,715.093171,0,2021-05-17 20:54:22,"2-Feb-2021","pitt","accrej",716.196519700001,718.2946601,1.87,0,FALSE,"loss",2.2014891,NA,"FALSE","FALSE",0.0990639000010538,0.124175599999944,0.103348700000993,FALSE
221604,3,79,1002,82,-1000,1,0,1,0,716.196519700001,1.87,718.2946601,719.4540507,1.1835618999994,1,4.82,724.3199183,0,2021-05-17 20:54:22,"2-Feb-2021","pitt","new_learn",725.405238400001,729.8469652,4.25,0,FALSE,"win",4.52704689999996,NA,"FALSE","FALSE",0.0241712999993484,0.0458675999999514,0.0853201000010131,FALSE
221604,3,80,1002,188,186,1,0,0,0,725.405238400001,4.25,729.8469652,730.576872900001,0.628246300000683,1,3.27,734.945141600001,735.0040735,2021-05-17 20:54:22,"2-Feb-2021","pitt","new_learn",737.566337,739.759122000001,2.07,0,FALSE,"nothing",3.81398039999999,NA,"FALSE","FALSE",-0.101661400000353,1.09826869999995,-0.87880460000099,TRUE
221604,3,81,1002,186,187,1,1,1,0,737.566337,2.07,739.759122000001,740.588155900001,0.726963999999498,1,4.99,746.6040641,0,2021-05-17 20:54:22,"2-Feb-2021","pitt","new_learn",746.6779802,749.7201644,2.96,0,FALSE,"win",2.11610030000008,NA,"FALSE","FALSE",-0.102069900000515,1.02590819999898,-0.926083899999981,TRUE
221604,3,82,1002,187,186,0,0,1,0,746.6779802,2.96,749.7201644,750.7515148,0.929943099999946,1,1.29,754.432268100001,0,2021-05-17 20:54:22,"2-Feb-2021","pitt","accrej",754.5170898,756.5024928,1.86,0,FALSE,"win",1.07022469999902,NA,"FALSE","FALSE",-0.101407300000005,2.39075330000105,-0.915178300001003,TRUE
221604,3,83,1002,188,187,0,1,1,0,754.5170898,1.86,756.5024928,757.2674506,0.66358129999935,1,4.71,763.093158200001,0,2021-05-17 20:54:22,"2-Feb-2021","pitt","accrej",763.1659088,768.405310300001,5,0,FALSE,"win",4.31215210000005,NA,"FALSE","FALSE",-0.101376500000584,1.11570760000097,-0.92724940000096,TRUE
221604,3,84,1002,102,-1000,0,0,-1,0,763.1659088,5,768.405310300001,769.6947175,1.35796750000009,0,0.95,770.7716296,0,2021-05-17 20:54:22,"2-Feb-2021","pitt","accrej",NA,NA,NA,NA,FALSE,"loss",NA,NA,"FALSE",NA,0.0685603000010853,0.126912099999913,NA,NA
221604,4,1,1003,41,-1000,1,0,1,0,2.65924410000116,2.3,5.30254349999996,6.33226140000079,1.07572160000018,1,2.21,8.66835340000034,0,2021-05-17 20:54:22,"2-Feb-2021","pitt","new_learn",9.75159230000099,11.760916700001,1.78,0,FALSE,"win",2.09256330000066,NA,"FALSE","FALSE",0.0460036999993498,0.12609199999955,0.0832389000006497,FALSE
221604,4,2,1003,26,-1000,1,0,0,0,9.75159230000099,1.78,11.760916700001,12.5812581999999,0.843053000000509,1,3.75,16.388697800001,0,2021-05-17 20:54:22,"2-Feb-2021","pitt","new_learn",17.4924811000001,20.8522110000013,3.26,0,FALSE,"nothing",3.4635132000003,NA,"FALSE","FALSE",0.0227115000016089,0.0574396000010999,0.103783299999098,FALSE
221604,4,3,1003,190,189,1,0,1,0,17.4924811000001,3.26,20.8522110000013,22.3545785999995,1.40076659999977,1,4.91,28.3815642999998,0,2021-05-17 20:54:22,"2-Feb-2021","pitt","new_learn",28.4860539000001,31.7479769000001,3.14,0,FALSE,"win",2.3664126000003,NA,"FALSE","FALSE",-0.101600999998428,1.1169857000003,-0.895510399999697,TRUE
221604,4,4,1003,191,189,0,0,-1,0,28.4860539000001,3.14,31.7479769000001,33.0008570999998,1.15090360000067,1,4.46,38.5748727999999,0,2021-05-17 20:54:22,"2-Feb-2021","pitt","accrej",38.6482625000008,41.7912949000001,3.02,0,FALSE,"loss",2.2164221000002,NA,"FALSE","FALSE",-0.101976599999028,1.1140157000001,-0.926610299999105,TRUE
221604,4,5,1003,189,191,0,0,0,0,38.6482625000008,3.02,41.7912949000001,43.547889200001,1.65564629999972,0,3.17,47.7687440999998,0,2021-05-17 20:54:22,"2-Feb-2021","pitt","accrej",47.8774642999997,50.8661542000009,2.67,0,FALSE,"nothing",2.0974101000011,NA,"FALSE","FALSE",-0.100948000001179,1.0508548999988,-0.891279800000099,TRUE
221604,4,6,1003,133,-1000,0,0,1,0,47.8774642999997,2.67,50.8661542000009,52.1921254999997,1.41692260000127,1,4.76,57.0343494999997,0,2021-05-17 20:54:22,"2-Feb-2021","pitt","accrej",58.1229254000009,60.3006953000004,1.88,0,FALSE,"win",2.2663458000007,NA,"FALSE","FALSE",0.0909513000024718,0.0822240000000036,0.088575900001203,FALSE
221604,4,7,1003,132,-1000,1,1,1,0,58.1229254000009,1.88,60.3006953000004,61.4624516000003,1.2614698999987,1,3.55,65.0789915000005,0,2021-05-17 20:54:22,"2-Feb-2021","pitt","new_learn",66.1716121000009,68.2610068000013,1.97,0,FALSE,"win",2.1820153000008,NA,"FALSE","FALSE",0.099713599998799,0.0665399000001941,0.0926206000004015,FALSE
221604,4,8,1003,190,191,1,0,0,0,66.1716121000009,1.97,68.2610068000013,69.0844049000007,0.721902199999022,1,5.13,75.2838286999995,0,2021-05-17 20:54:22,"2-Feb-2021","pitt","new_learn",75.3565340000005,78.7652916999996,2.67,0,FALSE,"nothing",2.48146300000009,NA,"FALSE","FALSE",-0.101495900000387,1.0694237999988,-0.92729469999901,TRUE
221604,4,9,1003,105,-1000,1,1,0,0,75.3565340000005,2.67,78.7652916999996,79.9633384000008,1.7822797000008,1,2.7,82.7585032000006,0,2021-05-17 20:54:22,"2-Feb-2021","pitt","new_learn",83.8242683999997,86.8017581000004,2.73,0,FALSE,"nothing",3.0432548999998,NA,"FALSE","FALSE",0.5842329999996,0.0951647999998073,0.0657651999990918,FALSE
221604,4,10,1003,25,-1000,0,0,1,0,83.8242683999997,2.73,86.8017581000004,87.7165388000012,0.947497900000599,1,2.86,90.6852526000002,91.7512614000007,2021-05-17 20:54:22,"2-Feb-2021","pitt","accrej",94.3073913000007,99.0511347000011,4.7,0,FALSE,"win",7.3658821000009,NA,"FALSE","FALSE",0.0327171999997946,0.108713799998995,0.122138700000505,FALSE
221604,4,11,1003,189,190,0,1,1,0,94.3073913000007,4.7,99.0511347000011,99.8580414000007,0.704690999999002,1,2.66,103.5485489,0,2021-05-17 20:54:22,"2-Feb-2021","pitt","accrej",103.6534171,105.6214783,1.86,0,FALSE,"win",1.07292940000001,NA,"FALSE","FALSE",-0.102215700000599,1.0305074999993,-0.895131800000001,TRUE
221604,4,12,1003,191,190,0,1,1,0,103.6534171,1.86,105.6214783,106.3773229,0.654382100001385,1,4.89,112.3427027,0,2021-05-17 20:54:22,"2-Feb-2021","pitt","accrej",112.389906300001,118.438313800001,5.96,0,FALSE,"win",5.09561110000099,NA,"FALSE","FALSE",-0.101462499998604,1.07537980000001,-0.952796399999002,TRUE
221604,4,13,1003,190,189,1,0,1,0,112.389906300001,5.96,118.438313800001,119.533310300001,0.993654399999286,1,3.7,124.301444300001,0,2021-05-17 20:54:22,"2-Feb-2021","pitt","new_learn",124.3530531,129.1023425,4.35,0,FALSE,"win",3.800898199999,NA,"FALSE","FALSE",-0.101342100000722,1.06813399999999,-0.948391200000998,TRUE
221604,4,14,1003,28,-1000,1,0,1,0,124.3530531,4.35,129.1023425,130.080828800001,1.19829279999976,1,2.45,132.5930013,0,2021-05-17 20:54:22,"2-Feb-2021","pitt","new_learn",133.6965373,136.510081100001,2.54,0,FALSE,"win",2.91707980000101,NA,"FALSE","FALSE",0.219806499998751,0.0621724999990079,0.103535999999991,FALSE
221604,4,15,1003,69,-1000,1,0,1,0,133.6965373,2.54,136.510081100001,137.633647000001,1.1309369999999,0,5.12,142.8602895,0,2021-05-17 20:54:22,"2-Feb-2021","pitt","new_learn",143.960512200001,146.154280500001,1.84,0,FALSE,"win",2.293991000001,NA,"FALSE","FALSE",0.00737109999991148,0.106642499998998,0.100222700001012,FALSE
221604,4,16,1003,119,-1000,0,0,1,0,143.960512200001,1.84,146.154280500001,147.039129700001,1.01487819999966,1,3.16,150.2750163,0,2021-05-17 20:54:22,"2-Feb-2021","pitt","accrej",151.357682,154.028558400001,2.41,0,FALSE,"win",2.753542100001,NA,"FALSE","FALSE",0.130028999999641,0.0758865999989951,0.0826657000000068,FALSE
221604,4,17,1003,62,-1000,0,1,-1,0,151.357682,2.41,154.028558400001,155.157337800001,1.15181529999973,1,2.45,157.6899715,0,2021-05-17 20:54:22,"2-Feb-2021","pitt","accrej",158.770555000001,161.807423600001,2.84,0,FALSE,"loss",3.11745210000097,NA,"FALSE","FALSE",0.0230358999997451,0.082633699999036,0.0805835000009836,FALSE
221604,4,18,1003,189,190,0,1,1,0,158.770555000001,2.84,161.807423600001,162.5371259,0.628454899999269,1,1.54,166.223679500001,0,2021-05-17 20:54:22,"2-Feb-2021","pitt","accrej",166.282904900001,168.845578800001,2.28,0,FALSE,"win",1.6218993,NA,"FALSE","FALSE",-0.10124739999975,2.146553600001,-0.940774599999997,TRUE
221604,4,19,1003,103,-1000,1,0,1,0,166.282904900001,2.28,168.845578800001,169.7540758,0.967558899999858,1,3.4,173.2357534,0,2021-05-17 20:54:22,"2-Feb-2021","pitt","new_learn",174.340526400001,178.217621,3.74,0,FALSE,"win",3.98186760000002,NA,"FALSE","FALSE",0.0590619000008415,0.0816775999999777,0.104773000001018,FALSE
221604,4,20,1003,191,189,1,0,1,0,174.340526400001,3.74,178.217621,179.682303200001,1.36239970000133,1,3.34,184.095206800001,184.125414399999,2021-05-17 20:54:22,"2-Feb-2021","pitt","new_learn",186.6859248,188.812501100001,2.04,0,FALSE,"win",3.71729429999999,NA,"FALSE","FALSE",-0.102282499999663,1.07290359999999,-0.909282000000985,TRUE
221604,4,21,1003,191,190,1,1,1,0,186.6859248,2.04,188.812501100001,189.6903415,0.776543099998889,1,1.11,193.288975200001,0,2021-05-17 20:54:22,"2-Feb-2021","pitt","new_learn",193.3667117,196.5305673,3.06,0,FALSE,"win",2.241592099999,NA,"FALSE","FALSE",-0.101297300000113,2.488633700001,-0.922263500001009,TRUE
221604,4,22,1003,189,191,0,1,-1,0,193.3667117,3.06,196.5305673,197.554082500001,0.922484099999565,1,1.02,201.1339369,0,2021-05-17 20:54:22,"2-Feb-2021","pitt","accrej",201.2099736,204.251684500001,2.99,0,FALSE,"loss",2.117747600001,NA,"FALSE","FALSE",-0.101031100001421,2.55985439999901,-0.923963299999997,TRUE
221604,4,23,1003,190,191,0,0,1,0,201.2099736,2.99,204.251684500001,205.1395214,0.786346999999296,1,1.58,208.762240800001,0,2021-05-17 20:54:22,"2-Feb-2021","pitt","accrej",208.8310133,211.3362044,2.43,0,FALSE,"win",1.57396359999902,NA,"FALSE","FALSE",-0.101489899999706,2.04271940000098,-0.931227500001,TRUE
221604,4,24,1003,191,190,0,1,-1,0,208.8310133,2.43,211.3362044,211.9669001,0.528754599999957,1,4.19,217.2233469,0,2021-05-17 20:54:22,"2-Feb-2021","pitt","accrej",217.2994691,220.297618800001,2.77,0,FALSE,"loss",2.07427190000101,NA,"FALSE","FALSE",-0.101941100000033,1.06644679999999,-0.923877799999985,TRUE
221604,4,25,1003,30,-1000,1,0,0,0,217.2994691,2.77,220.297618800001,221.3951382,1.17227499999899,0,1.63,223.099190200001,0,2021-05-17 20:54:22,"2-Feb-2021","pitt","new_learn",224.173091800001,226.0417165,1.76,0,FALSE,"nothing",1.942526299999,NA,"FALSE","FALSE",0.0747556000000031,0.0740520000010179,0.0739015999999992,FALSE
221604,4,26,1003,189,190,1,1,1,0,224.173091800001,1.76,226.0417165,226.7351915,0.59129109999958,1,0.95,230.347952300001,0,2021-05-17 20:54:22,"2-Feb-2021","pitt","new_learn",230.4198615,232.9282747,2.42,0,FALSE,"win",1.58032239999901,NA,"FALSE","FALSE",-0.102183900000427,2.662760800001,-0.928090800001002,TRUE
221604,4,27,1003,191,189,1,0,1,0,230.4198615,2.42,232.9282747,233.917772500001,0.887772400001268,1,1.03,237.543200300001,0,2021-05-17 20:54:22,"2-Feb-2021","pitt","new_learn",237.6158203,240.3040017,2.39,0,FALSE,"win",1.760801399999,NA,"FALSE","FALSE",-0.101725399999736,2.59542779999998,-0.927380000000994,TRUE
221604,4,28,1003,109,-1000,0,0,1,0,237.6158203,2.39,240.3040017,241.146939300001,0.906734400001369,1,4.85,246.0590452,0,2021-05-17 20:54:22,"2-Feb-2021","pitt","accrej",247.1478417,252.5197438,5.18,0,FALSE,"win",5.46069859999997,NA,"FALSE","FALSE",0.0637968000003467,0.0621058999990112,0.0887964999999724,FALSE
221604,4,29,1003,190,189,0,0,-1,0,247.1478417,5.18,252.5197438,253.3702423,0.748324600001069,1,2.3,257.013604900001,0,2021-05-17 20:54:22,"2-Feb-2021","pitt","accrej",257.0882833,261.485052,4.15,0,FALSE,"loss",3.47144709999901,NA,"FALSE","FALSE",-0.102173899998946,1.34336260000097,-0.925321600000984,TRUE
221604,4,30,1003,104,-1000,0,0,1,0,257.0882833,4.15,261.485052,262.4823419,1.08494079999946,1,5.17,267.750073000001,268.813961900001,2021-05-17 20:54:22,"2-Feb-2021","pitt","accrej",281.017056500001,284.9833528,3.65,1,FALSE,"win",16.233279799999,NA,"FALSE","TRUE",0.0876508999994616,0.097731100000999,9.76698349999998,FALSE
221604,4,31,1003,117,-1000,1,1,1,1,281.017056500001,3.65,284.9833528,285.936823,1.04718169999978,1,0.83,286.896398300001,0,2021-05-17 20:54:22,"2-Feb-2021","pitt","new_learn",287.9916589,290.715187900001,2.34,0,FALSE,"win",2.8187896,NA,"TRUE","FALSE",0.0937114999997535,0.129575300001022,0.0952605999989942,FALSE
221604,4,32,1003,87,-1000,1,1,-1,0,287.9916589,2.34,290.715187900001,291.9997766,1.39488680000068,1,2.56,294.7488252,0,2021-05-17 20:54:22,"2-Feb-2021","pitt","new_learn",295.8137804,298.509551500001,2.39,0,FALSE,"loss",2.76072630000101,NA,"FALSE","FALSE",0.110298100001674,0.189048599999978,0.0649551999999858,FALSE
221604,4,33,1003,94,-1000,1,0,0,0,295.8137804,2.39,298.509551500001,299.714178600001,1.28456410000035,1,2.25,302.0398663,0,2021-05-17 20:54:22,"2-Feb-2021","pitt","new_learn",303.1244271,308.620297200001,4.96,0,FALSE,"nothing",5.58043090000098,NA,"FALSE","FALSE",0.0799370000003681,0.0756876999990368,0.0845607999999629,FALSE
221604,4,34,1003,131,-1000,0,0,-1,0,303.1244271,4.96,308.620297200001,309.8726367,1.58219910000116,1,0.88,310.8335763,0,2021-05-17 20:54:22,"2-Feb-2021","pitt","accrej",311.939764500001,314.525885700001,2.07,0,FALSE,"loss",2.69230940000102,NA,"FALSE","FALSE",0.329859600002178,0.080939600000022,0.106188200000986,FALSE
221604,4,35,1003,73,-1000,0,0,0,0,311.939764500001,2.07,314.525885700001,315.5038071,1.29727450000064,1,2.84,318.453268700001,0,2021-05-17 20:54:22,"2-Feb-2021","pitt","accrej",319.534142300001,322.409294200001,1.8,0,FALSE,"nothing",2.95602550000001,NA,"FALSE","FALSE",0.319353100001649,0.109461600000998,0.0808736000000181,FALSE
221604,4,36,1003,75,-1000,0,1,-1,0,319.534142300001,1.8,322.409294200001,323.612801900001,1.98750729999847,1,1.4,325.0989627,0,2021-05-17 20:54:22,"2-Feb-2021","pitt","accrej",326.216844800001,328.414068400001,2.11,0,FALSE,"loss",2.31510570000097,NA,"FALSE","FALSE",0.783999599998481,0.0861607999990497,0.117882100000998,FALSE
221604,4,37,1003,189,191,1,1,1,0,326.216844800001,2.11,328.414068400001,329.4844975,0.967803099998491,1,1.81,333.0966852,0,2021-05-17 20:54:22,"2-Feb-2021","pitt","new_learn",333.172852400001,336.0023958,2.7,0,FALSE,"win",1.90571059999996,NA,"FALSE","FALSE",-0.102626000000498,1.80218770000005,-0.923832799999047,TRUE
221604,4,38,1003,190,191,1,0,1,0,333.172852400001,2.7,336.0023958,336.7748964,0.66951169999993,1,1.09,340.4085426,0,2021-05-17 20:54:22,"2-Feb-2021","pitt","new_learn",340.517672800001,344.5452047,3.69,0,FALSE,"win",3.13666210000002,NA,"FALSE","FALSE",-0.102988900000071,2.54364620000001,-0.890869799998995,TRUE
221604,4,39,1003,18,-1000,1,0,1,0,340.517672800001,3.69,344.5452047,345.440381300001,1.0573844999999,0,1.32,346.827087,0,2021-05-17 20:54:22,"2-Feb-2021","pitt","new_learn",347.882804300001,356.875629300001,8.7,0,FALSE,"win",9.04854230000097,NA,"FALSE","FALSE",0.16220789999892,0.0667056999990336,0.0557173000009925,FALSE
221604,4,40,1003,130,-1000,0,0,1,0,347.882804300001,8.7,356.875629300001,357.724403100001,0.871724599999652,1,1.15,358.9913065,360.024719500001,2021-05-17 20:54:22,"2-Feb-2021","pitt","accrej",362.6048532,364.7429144,1.94,0,FALSE,"win",4.75160790000001,NA,"FALSE","FALSE",0.0229507999996484,0.116903399999046,0.113546699999972,FALSE
221604,4,41,1003,134,-1000,0,1,0,0,362.6048532,1.94,364.7429144,365.8263759,1.12197620000006,1,2.6,368.5116375,0,2021-05-17 20:54:22,"2-Feb-2021","pitt","accrej",369.5784817,372.346081,2.48,0,FALSE,"nothing",2.83444350000002,NA,"FALSE","FALSE",0.0385147000000614,0.0852615999999671,0.0668441999999914,FALSE
221604,4,42,1003,101,-1000,0,1,-1,0,369.5784817,2.48,372.346081,373.5876441,1.26298870000028,1,4.6,378.2390999,0,2021-05-17 20:54:22,"2-Feb-2021","pitt","accrej",379.3577396,382.7129859,3.06,0,FALSE,"loss",3.47388599999999,NA,"FALSE","FALSE",0.0214256000003292,0.0514557999999852,0.118639700000017,FALSE
221604,4,43,1003,106,-1000,1,0,1,0,379.3577396,3.06,382.7129859,383.6950825,1.01028410000072,1,1.24,385.0261847,0,2021-05-17 20:54:22,"2-Feb-2021","pitt","new_learn",386.103817200001,388.7400201,2.53,0,FALSE,"win",2.71383539999999,NA,"FALSE","FALSE",0.0281875000006861,0.0911021999999662,0.0776325000010161,FALSE
221604,4,44,1003,190,191,1,0,1,0,386.103817200001,2.53,388.7400201,389.908464800001,1.06591730000036,1,1.29,393.5567185,0,2021-05-17 20:54:22,"2-Feb-2021","pitt","new_learn",393.598382300001,396.128450300001,2.46,0,FALSE,"win",1.57173180000103,NA,"FALSE","FALSE",-0.102527400000672,2.35825369999895,-0.958336199998996,TRUE
221604,4,45,1003,190,189,1,0,1,0,393.598382300001,2.46,396.128450300001,397.0305579,0.799549100000149,1,5.13,403.283735000001,0,2021-05-17 20:54:22,"2-Feb-2021","pitt","new_learn",403.3553775,408.9328897,5.5,0,FALSE,"win",4.64915469999897,NA,"FALSE","FALSE",-0.10255849999885,1.12317710000099,-0.928357500001027,TRUE
221604,4,46,1003,189,191,0,1,-1,0,403.3553775,5.5,408.9328897,410.557366000001,1.52203560000089,1,2.83,414.5095403,0,2021-05-17 20:54:22,"2-Feb-2021","pitt","accrej",414.574086099999,419.1598932,3.78,0,FALSE,"loss",3.65035289999997,NA,"FALSE","FALSE",-0.102440700000159,1.12217429999902,-0.935454200001004,TRUE
221604,4,47,1003,95,-1000,0,0,1,0,414.574086099999,3.78,419.1598932,420.4745683,1.92932060000021,1,2.97,423.5274484,0,2021-05-17 20:54:22,"2-Feb-2021","pitt","accrej",424.613193700001,427.347309799999,2.36,0,FALSE,"win",2.81986139999896,NA,"FALSE","FALSE",0.614645500000222,0.0828801000000112,0.0857453000009514,FALSE
221604,4,48,1003,42,-1000,0,0,-1,0,424.613193700001,2.36,427.347309799999,428.5247439,1.29133550000006,0,2.41,431.0494495,0,2021-05-17 20:54:22,"2-Feb-2021","pitt","accrej",432.1528387,434.1223013,1.86,0,FALSE,"loss",2.07285180000002,NA,"FALSE","FALSE",0.113901399999066,0.114705599999979,0.103389200000038,FALSE
221604,4,49,1003,189,190,1,1,-1,0,432.1528387,1.86,434.1223013,434.792398,0.568865500001266,1,5.09,440.941984500001,0,2021-05-17 20:54:22,"2-Feb-2021","pitt","new_learn",441.0389727,443.2132533,2.09,0,FALSE,"loss",1.27126879999901,NA,"FALSE","FALSE",-0.101231199998722,1.05958650000105,-0.903011800001025,TRUE
221604,4,50,1003,191,189,1,0,1,0,441.0389727,2.09,443.2132533,444.137405200001,0.822867799999585,1,3.94,449.1865325,449.2553885,2021-05-17 20:54:22,"2-Feb-2021","pitt","new_learn",451.8201551,453.8103235,1.92,0,FALSE,"win",3.62379099999998,NA,"FALSE","FALSE",-0.101284100001408,1.10912729999899,-0.866377399999976,TRUE
221604,4,51,1003,191,190,1,1,-1,0,451.8201551,1.92,453.8103235,454.4923065,0.580638900000849,1,0.87,458.080640300001,0,2021-05-17 20:54:22,"2-Feb-2021","pitt","new_learn",458.1664499,460.060744500001,1.82,0,FALSE,"loss",0.980104200000028,NA,"FALSE","FALSE",-0.101344099999154,2.71833380000101,-0.914190400001019,TRUE
221604,4,52,1003,191,190,0,1,1,0,458.1664499,1.82,460.060744500001,460.857755500001,0.695230400000582,1,4.42,466.341770000001,0,2021-05-17 20:54:22,"2-Feb-2021","pitt","accrej",466.4249353,469.47651,2.52,0,FALSE,"win",2.134739999999,NA,"FALSE","FALSE",-0.101780599999416,1.06401449999998,-0.916834700001004,TRUE
221604,4,53,1003,127,-1000,0,0,1,0,466.4249353,2.52,469.47651,470.5189556,1.37745739999991,1,3.03,473.595677400001,0,2021-05-17 20:54:22,"2-Feb-2021","pitt","accrej",474.686944999999,479.5433048,4.76,0,FALSE,"win",4.94762739999896,NA,"FALSE","FALSE",0.335011799999902,0.0467218000010234,0.0912675999979911,FALSE
221604,4,54,1003,189,191,0,1,-1,0,474.686944999999,4.76,479.5433048,480.7472024,1.10161790000166,1,3.68,485.4957576,0,2021-05-17 20:54:22,"2-Feb-2021","pitt","accrej",485.5694595,488.4723552,2.64,0,FALSE,"loss",1.97659759999999,NA,"FALSE","FALSE",-0.102279699998345,1.06855519999999,-0.926298099999997,TRUE
221604,4,55,1003,20,-1000,1,1,1,0,485.5694595,2.64,488.4723552,489.799808900001,1.40403179999885,1,0.71,490.6320744,0,2021-05-17 20:54:22,"2-Feb-2021","pitt","new_learn",491.730160000001,493.8491952,1.85,0,FALSE,"win",2.21712079999998,NA,"FALSE","FALSE",0.0765780999978487,0.12226549999906,0.0980856000009567,FALSE
221604,4,56,1003,57,-1000,1,0,-1,0,491.730160000001,1.85,493.8491952,494.826972300001,1.01732480000101,0,5.29,500.163210500001,0,2021-05-17 20:54:22,"2-Feb-2021","pitt","new_learn",501.264242200001,506.417843000001,5.05,0,FALSE,"loss",5.25463250000001,NA,"FALSE","FALSE",0.0395477000000179,0.0462382000000048,0.101031699999965,FALSE
221604,4,57,1003,191,189,1,0,1,0,501.264242200001,5.05,506.417843000001,507.365421300001,0.845121199999994,1,1.01,511.028901600001,0,2021-05-17 20:54:22,"2-Feb-2021","pitt","new_learn",511.0748528,513.829362,2.71,0,FALSE,"win",1.80046039999888,NA,"FALSE","FALSE",-0.102457099999981,2.65348030000001,-0.95404880000109,TRUE
221604,4,58,1003,190,189,0,0,-1,0,511.0748528,2.71,513.829362,515.7250382,1.79158459999962,1,5.05,521.8217614,0,2021-05-17 20:54:22,"2-Feb-2021","pitt","accrej",521.8668263,523.960997300001,1.96,0,FALSE,"loss",1.13923590000104,NA,"FALSE","FALSE",-0.104091600000405,1.04672320000009,-0.954935100000057,TRUE
221604,4,59,1003,189,190,0,1,1,0,521.8668263,1.96,523.960997300001,524.6362878,0.572874100000263,1,4.98,530.7158511,0,2021-05-17 20:54:22,"2-Feb-2021","pitt","accrej",530.7557141,533.1847698,2.29,0,FALSE,"win",1.46891870000002,NA,"FALSE","FALSE",-0.102416399998674,1.0995633,-0.960137000000032,TRUE
221604,4,60,1003,190,191,0,0,0,0,530.7557141,2.29,533.1847698,533.867607600001,0.581144699999641,1,0.91,537.4613933,537.5233035,2021-05-17 20:54:22,"2-Feb-2021","pitt","accrej",540.086414700001,542.3607785,2.03,0,FALSE,"nothing",3.89938519999998,NA,"FALSE","FALSE",-0.101693100001284,2.68378569999913,-0.874978599999054,TRUE
221604,4,61,1003,71,-1000,1,0,-1,0,540.086414700001,2.03,542.3607785,543.5696685,1.29926530000012,1,4.37,547.9904862,0,2021-05-17 20:54:22,"2-Feb-2021","pitt","new_learn",549.078426400001,553.840307800001,4.63,0,FALSE,"loss",4.84982160000106,NA,"FALSE","FALSE",0.0903753000001233,0.050817699999925,0.0879402000010714,FALSE
221604,4,62,1003,190,189,1,0,1,0,549.078426400001,4.63,553.840307800001,554.686982700001,0.74477239999942,1,4.71,560.5297137,0,2021-05-17 20:54:22,"2-Feb-2021","pitt","new_learn",560.602515300001,564.6893965,3.76,0,FALSE,"win",3.15968280000004,NA,"FALSE","FALSE",-0.101902500000505,1.13273099999901,-0.927198399999043,TRUE
221604,4,63,1003,96,-1000,1,0,1,0,560.602515300001,3.76,564.6893965,565.493014400001,0.899070999999822,0,3.14,568.7430272,0,2021-05-17 20:54:22,"2-Feb-2021","pitt","new_learn",569.832986400001,573.189020100001,3.21,0,FALSE,"win",3.44599290000099,NA,"FALSE","FALSE",0.0954530999988495,0.110012799999026,0.0899592000009761,FALSE
221604,4,64,1003,189,191,0,1,-1,0,569.832986400001,3.21,573.189020100001,574.100087300001,0.808945299999323,1,4.53,579.700019,0,2021-05-17 20:54:22,"2-Feb-2021","pitt","accrej",579.7569707,583.446363200001,3.4,0,FALSE,"loss",2.74634420000098,NA,"FALSE","FALSE",-0.102121900000611,1.06993169999907,-0.943048299999987,TRUE
221604,4,65,1003,55,-1000,0,0,1,0,579.7569707,3.4,583.446363200001,584.2617302,0.919105599999966,1,0.71,585.050294800001,0,2021-05-17 20:54:22,"2-Feb-2021","pitt","accrej",586.117134100001,588.329000900001,2.02,0,FALSE,"win",2.27870610000002,NA,"FALSE","FALSE",0.103738600000952,0.0785646000009592,0.0668392999999696,FALSE
