id,run_number,trial,block,stim1,stim2,feedback,choice,outcome,times_too_slow,trial_started,iti,stim_time,choice_time,reaction_time,correct_choice,feedback_lag,feedback_time,every_ten,trial_type,next_start,too_slow_lead
220256,1,1,1000,180,182,1,0,0,1,10.3749158382416,2.58,13.0062358379364,13.5108649730682,0.491878032684326,0,1.35,16.1226699352264,0,new_learn,17.2007548809052,0
220256,1,2,1000,182,181,1,1,1,0,17.2007548809052,3.09,20.3386600017548,21.2001478672028,0.855363845825195,1,2.79,24.0382039546967,0,new_learn,25.1252319812775,0
220256,1,3,1000,182,180,1,1,0,0,25.1252319812775,4.09,29.2707479000092,30.8998939990997,1.62305092811584,0,4.15,35.0876908302307,0,new_learn,36.1375489234924,0
220256,1,4,1000,61,-1000,0,0,1,0,36.1375489234924,2.09,38.5040879249573,40.4949588775635,2.20981693267822,1,4.48,45.0375878810883,0,accrej,54.4974029064178,1
220256,1,5,1000,66,-1000,0,0,0,1,54.4974029064178,3.25,57.7998960018158,58.3667109012604,0.574629068374634,0,0.88,59.3037707805634,0,accrej,60.3826367855072,0
220256,1,6,1000,22,-1000,0,1,1,0,60.3826367855072,2.48,62.9204239845276,64.5659558773041,1.65620398521423,0,4.34,68.9488618373871,0,accrej,70.0205249786377,0
220256,1,7,1000,181,182,1,0,0,0,70.0205249786377,2.28,72.3648068904877,73.7197458744049,1.34534311294556,1,0.96,76.3205938339233,0,new_learn,77.3601658344269,0
220256,1,8,1000,180,181,1,0,0,0,77.3601658344269,3.59,81.0036239624023,83.6921370029449,2.68358993530273,0,4.79,88.5370218753815,0,new_learn,89.5963628292084,0
220256,1,9,1000,181,180,1,0,1,0,89.5963628292084,1.98,91.6283459663391,93.3346388339996,1.70140886306763,1,0.83,95.9277019500732,0,new_learn,96.9799768924713,0
220256,1,10,1000,181,180,1,1,-1,0,96.9799768924713,1.96,98.9941239356995,100.867158889771,1.86569595336914,0,0.7,103.460347890854,104.473122835159,new_learn,107.032039880753,0
220256,1,11,1000,181,182,1,1,1,0,107.032039880753,2,109.077187776566,110.639895915985,1.55766415596008,0,1.11,113.242274999619,0,new_learn,114.288121938705,0
220256,1,12,1000,180,181,1,1,1,0,114.288121938705,2.38,116.724864959717,118.601333856583,1.87189698219299,1,2.61,121.257828950882,0,new_learn,122.311077833176,0
220256,1,13,1000,44,-1000,0,1,0,0,122.311077833176,2.93,125.307300806046,127.345023870468,2.05324101448059,1,1.66,129.039924860001,0,accrej,130.086258888245,0
220256,1,14,1000,182,180,1,0,0,0,130.086258888245,2.64,132.772594928741,134.251526832581,1.47498607635498,1,1.71,136.85528588295,0,new_learn,137.899793863297,0
220256,1,15,1000,96,-1000,0,1,1,0,137.899793863297,2.89,140.838179826736,142.722935914993,1.89706492424011,1,3,145.772611856461,0,accrej,153.964912891388,1
220256,1,16,1000,107,-1000,0,0,-1,1,153.964912891388,2.05,156.052665948868,156.702976942062,0.654957056045532,1,0.97,157.719491004944,0,accrej,158.787968873978,0
220256,1,17,1000,182,181,1,0,0,0,158.787968873978,2.56,161.401946783066,162.639493942261,1.23199510574341,0,4.17,166.836591959,0,new_learn,167.877222776413,0
220256,1,18,1000,112,-1000,0,1,-1,0,167.877222776413,3.21,171.136567831039,172.54323887825,1.416100025177,0,2.53,175.103082895279,0,accrej,176.143763780594,0
220256,1,19,1000,32,-1000,0,1,1,0,176.143763780594,3.07,179.267144918442,180.660789966583,1.4067108631134,1,0.75,181.4533867836,0,accrej,182.512609958649,0
220256,1,20,1000,63,-1000,0,1,1,0,182.512609958649,2.43,184.987118959427,186.662887811661,1.68348503112793,1,4.81,191.503564834595,192.53989481926,accrej,195.102715969086,0
220256,1,21,1000,180,182,1,1,-1,0,195.102715969086,2.67,197.831977844238,199.664194822311,1.82342600822449,1,0.86,202.270874977112,0,new_learn,203.298963785172,0
220256,1,22,1000,21,-1000,0,1,1,0,203.298963785172,2.01,205.354345798492,206.819441795349,1.46631908416748,1,1.56,208.404415845871,0,accrej,209.449258804321,0
220256,1,23,1000,181,182,1,1,0,0,209.449258804321,2.2,211.704330921173,213.471294879913,1.76521301269531,0,4.31,217.81343793869,0,new_learn,218.870531797409,0
220256,1,24,1000,180,182,1,1,0,0,218.870531797409,2.94,221.871263980865,223.485313892365,1.6098518371582,1,1.41,226.071761846542,0,new_learn,227.128663778305,0
220256,1,25,1000,180,181,1,0,-1,0,227.128663778305,2.03,229.212215900421,230.211681842804,0.994097948074341,0,4.29,234.538841962814,0,new_learn,235.594077825546,0
220256,1,26,1000,182,180,1,0,0,0,235.594077825546,4.28,239.927461862564,241.626748800278,1.69415807723999,1,1.53,244.205701828003,0,new_learn,245.247058868408,0
220256,1,27,1000,181,180,1,0,1,0,245.247058868408,2.98,248.276851892471,249.972263813019,1.68996095657349,1,4.77,254.776275873184,0,new_learn,255.831703901291,0
220256,1,28,1000,70,-1000,0,0,1,0,255.831703901291,2.25,258.12592792511,260.122831821442,2.00155687332153,1,2.7,262.858382940292,0,accrej,263.927294969559,0
220256,1,29,1000,65,-1000,0,1,0,0,263.927294969559,1.82,265.791664838791,267.210605859756,1.41979384422302,1,5.03,272.274317979813,0,accrej,273.345071792603,0
220256,1,30,1000,182,181,1,1,1,0,273.345071792603,8.12,281.523100852966,282.542150974274,1.01135492324829,1,1.83,285.12341094017,286.134652853012,new_learn,288.673681974411,0
220256,1,31,1000,95,-1000,0,1,-1,0,288.673681974411,2.44,291.172288894653,292.962094783783,1.80402684211731,1,1.17,294.173418998718,0,accrej,295.24293088913,0
220256,1,32,1000,181,180,1,0,1,0,295.24293088913,2.76,298.056798934937,299.594955921173,1.53105497360229,1,3.39,303.023729801178,0,new_learn,304.057931900024,0
220256,1,33,1000,67,-1000,0,1,-1,0,304.057931900024,2.28,306.3901720047,308.934048891068,2.55139112472534,0,2.76,311.723717927933,0,accrej,312.795936822891,0
220256,1,34,1000,80,-1000,0,0,0,0,312.795936822891,2.51,315.356975793839,317.059233903885,1.71444201469421,1,0.85,317.990406990051,0,accrej,319.048041820526,0
220256,1,35,1000,76,-1000,0,1,1,0,319.048041820526,6.51,325.607069969177,326.905580997467,1.30895400047302,0,3.09,330.023765802383,0,accrej,331.075308799744,0
220256,1,36,1000,180,181,1,1,1,0,331.075308799744,6.85,337.983608007431,339.468048810959,1.47884178161621,1,3.95,343.466544866562,0,new_learn,344.515314817429,0
220256,1,37,1000,182,180,1,0,0,0,344.515314817429,3.5,348.065650939941,349.53929400444,1.46900296211243,1,4.65,354.231910943985,0,new_learn,355.288578987122,0
220256,1,38,1000,180,182,1,1,0,0,355.288578987122,1.84,357.181620836258,358.965279817581,1.78028512001038,1,4.43,363.441516876221,0,new_learn,364.49627494812,0
220256,1,39,1000,181,182,1,0,1,0,364.49627494812,3.2,367.747620820999,368.812858819962,1.06128811836243,1,1.57,371.39169383049,0,new_learn,372.449093818665,0
220256,1,40,1000,90,-1000,0,1,1,0,372.449093818665,2.22,374.7124979496,376.113519906998,1.40372180938721,1,3.7,379.845352888107,380.87509393692,accrej,383.411076784134,0
220256,1,41,1000,182,181,1,1,-1,0,383.411076784134,2.28,385.744861841202,386.931447982788,1.1812641620636,1,5.17,392.143989801407,0,new_learn,393.168028831482,0
220256,1,42,1000,182,181,1,0,-1,0,393.168028831482,3.3,396.510449886322,397.898656845093,1.38185000419617,0,1.69,400.476642847061,0,new_learn,401.531627893448,0
220256,1,43,1000,69,-1000,0,1,-1,0,401.531627893448,2.32,403.892793893814,405.690387964249,1.79683303833008,1,4.83,410.558828830719,0,accrej,411.603453874588,0
220256,1,44,1000,94,-1000,0,0,0,0,411.603453874588,4.2,415.841892957687,416.499325990677,0.666529893875122,1,2.92,419.477437973022,0,accrej,420.522726774216,0
220256,1,45,1000,26,-1000,0,1,1,0,420.522726774216,3.44,424.025280952454,425.570319890976,1.55749702453613,1,3.3,428.9089179039,0,accrej,429.950966835022,0
220256,1,46,1000,181,182,1,0,1,0,429.950966835022,2.88,432.875296831131,434.52204990387,1.63837313652039,1,3.21,437.775818824768,0,new_learn,438.814909934998,0
220256,1,47,1000,180,182,1,0,-1,0,438.814909934998,3.12,441.988316774368,443.066720962524,1.07330417633057,0,4.89,448.003645896912,0,new_learn,449.026335954666,0
220256,1,48,1000,182,180,1,1,-1,0,449.026335954666,2.45,451.526516914368,451.660624980927,0.126189947128296,0,5.04,456.742519855499,0,new_learn,457.793897867203,0
220256,1,49,1000,99,-1000,0,1,0,0,457.793897867203,1.76,459.608967781067,460.298067808151,0.70026707649231,1,5.15,465.492595911026,0,accrej,466.560025930405,0
220256,1,50,1000,105,-1000,0,0,0,0,466.560025930405,2.45,469.068073987961,470.735565900803,1.6790931224823,0,4.96,475.750775814056,476.780288934708,accrej,493.234744787216,1
220256,1,51,1000,52,-1000,0,1,1,1,493.234744787216,8.8,502.092732906342,503.052543878555,0.971160173416138,0,3,506.080446958542,0,accrej,507.134355783463,0
220256,1,52,1000,181,180,1,0,1,0,507.134355783463,2,509.179754972458,511.055910825729,1.86939787864685,1,5.14,516.22913479805,0,new_learn,517.287801980972,0
220256,1,53,1000,101,-1000,0,1,1,0,517.287801980972,2.35,519.679605007172,521.564685821533,1.89214015007019,1,4.35,525.961095809937,0,accrej,527.00489282608,0
220256,1,54,1000,93,-1000,0,0,-1,0,527.00489282608,2.4,529.444540977478,531.682010889053,2.24149703979492,0,1.65,533.393723964691,0,accrej,541.835589885712,1
220256,1,55,1000,88,-1000,0,0,1,1,541.835589885712,2.26,544.143124818802,544.89786195755,0.770417928695679,1,3.47,548.409653902054,0,accrej,549.475344896317,0
220256,1,56,1000,103,-1000,0,0,-1,0,549.475344896317,5.57,555.093118906021,556.405540943146,1.31311202049255,1,4.44,560.909945011139,0,accrej,561.967408895493,0
220256,1,57,1000,78,-1000,0,0,-1,0,561.967408895493,1.87,563.893342971802,565.117854833603,1.23209309577942,0,0.93,566.106287956238,0,accrej,567.132091999054,0
220256,1,58,1000,38,-1000,0,0,1,0,567.132091999054,5.42,572.605582952499,574.067607879639,1.47491121292114,1,4.47,578.58766078949,0,accrej,579.621624946594,0
220256,1,59,1000,180,181,1,1,1,0,579.621624946594,3.49,583.170926809311,585.948884010315,2.77143406867981,1,2.86,588.843451976776,0,new_learn,589.899540901184,0
220256,1,60,1000,47,-1000,0,1,0,0,589.899540901184,1.8,591.743404865265,593.311733961105,1.57863283157349,1,1.52,594.876524925232,595.906842947006,accrej,598.457196950912,0
220256,1,61,1000,181,180,1,0,1,0,598.457196950912,1.76,600.260278940201,601.557740926743,1.29209494590759,1,4.26,605.834740877151,0,new_learn,615.380378961563,1
220256,1,62,1000,102,-1000,0,1,1,1,615.380378961563,3.41,618.843398809433,620.249403953552,1.41660118103027,1,2.3,622.582593917847,0,accrej,623.638791799545,0
220256,1,63,1000,74,-1000,0,0,-1,0,623.638791799545,3.05,626.748739004135,628.820578813553,2.08319497108459,1,1.53,630.410050868988,0,accrej,631.472132921219,0
220256,1,64,1000,182,180,1,0,0,0,631.472132921219,2.16,633.681074857712,635.425125837326,1.73940014839172,1,3.14,638.597326993942,0,new_learn,639.642246961594,0
220256,1,65,1000,24,-1000,0,1,-1,0,639.642246961594,2.71,642.413395881653,643.752023935318,1.35113000869751,1,1.39,645.179533958435,0,accrej,646.235021829605,0
220256,1,66,1000,180,181,1,0,-1,0,646.235021829605,3.75,650.029115915298,651.211488962173,1.17528295516968,0,5.3,656.544981956482,0,new_learn,657.602444887161,0
220256,1,67,1000,180,182,1,0,-1,0,657.602444887161,3.71,661.360960006714,662.50470495224,1.13847279548645,0,2.05,665.110520839691,0,new_learn,666.147120952606,0
220256,1,68,1000,113,-1000,0,0,-1,0,666.147120952606,2,668.193806886673,669.871294975281,1.68154382705688,1,5.12,675.060342788696,0,accrej,676.110589981079,0
220256,1,69,1000,19,-1000,0,0,-1,0,676.110589981079,4.86,681.024917840958,683.21075797081,2.19647598266602,1,3.24,686.4935297966,0,accrej,687.545167922974,0
220256,1,70,1000,181,182,1,0,1,0,687.545167922974,2.22,689.810154914856,691.872844934464,2.05439400672913,1,1.21,694.46079492569,695.469930887222,new_learn,697.99844789505,0
220256,1,71,1000,34,-1000,0,0,1,0,697.99844789505,2.85,700.893583774567,702.295945882797,1.40615701675415,1,2.91,705.260605812073,0,accrej,706.328465938568,0
220256,1,72,1000,182,181,1,1,0,0,706.328465938568,2.87,709.254785776138,710.815624952316,1.55264806747437,1,3.42,714.277367830276,0,new_learn,715.332242965698,0
220256,1,73,1000,181,182,1,1,-1,0,715.332242965698,2.55,717.936980962753,719.229339838028,1.28841996192932,0,2.58,721.843968868256,0,new_learn,722.883945941925,0
220256,1,74,1000,180,181,1,0,-1,0,722.883945941925,4.29,727.218798875809,729.327251911163,2.10051798820496,0,1.74,731.927130937576,0,new_learn,732.978262901306,0
220256,1,75,1000,28,-1000,0,1,0,0,732.978262901306,3.77,736.801208972931,738.330545902252,1.5356011390686,0,5.07,743.433538913727,0,accrej,744.504616975784,0
220256,1,76,1000,81,-1000,0,1,-1,0,744.504616975784,3.59,748.143545866013,749.914566993713,1.78189897537231,1,5.25,755.215436935425,0,accrej,756.282666921616,0
220256,1,77,1000,20,-1000,0,1,0,0,756.282666921616,1.95,758.28130197525,760.403485774994,2.12957620620728,1,1.19,761.631123781204,0,accrej,762.694805860519,0
220256,1,78,1000,51,-1000,0,1,-1,0,762.694805860519,2.37,765.113983869553,766.462033987045,1.35703206062317,1,4.61,771.096738815308,0,accrej,772.16427898407,0
220256,1,79,1000,181,180,1,0,-1,0,772.16427898407,4.38,776.595968008041,777.707803010941,1.10735177993774,1,1.23,780.295615911484,0,new_learn,781.354591846466,0
220256,1,80,1000,83,-1000,0,1,1,0,781.354591846466,3.11,784.511649847031,787.510571956635,3.0123929977417,1,1.04,788.577506780624,789.61202788353,accrej,792.177240848541,0
220256,1,81,1000,82,-1000,0,0,1,0,792.177240848541,3.22,795.443542957306,797.266834974289,1.82186794281006,1,3.08,800.409574985504,0,accrej,801.439610004425,0
220256,1,82,1000,180,182,1,0,-1,0,801.439610004425,2.79,804.275686979294,805.889356851578,1.61008787155151,0,4.59,810.510774850845,0,new_learn,811.570683002472,0
220256,1,83,1000,182,181,1,1,1,0,811.570683002472,6.91,818.527356863022,820.099409818649,1.56477808952332,1,1.85,822.693558931351,0,new_learn,823.736784934998,0
220256,1,84,1000,182,180,1,1,0,0,823.736784934998,5,828.776947975159,830.209342002869,1.42616081237793,0,4.47,834.721297979355,0,new_learn,,
220256,2,1,1001,183,185,1,0,-1,0,2.60097002983093,3.26,5.92172908782959,8.19901704788208,2.27227902412415,0,3.66,11.9024670124054,0,new_learn,12.9439890384674,0
220256,2,2,1001,79,-1000,0,1,1,0,12.9439890384674,3.8,16.7854700088501,18.5056331157684,1.7242591381073,0,1.55,20.0856890678406,0,accrej,21.1362760066986,0
220256,2,3,1001,84,-1000,0,1,0,0,21.1362760066986,2.53,23.7190320491791,25.3412082195282,1.63190412521362,1,1.33,26.7022950649261,0,accrej,27.7709140777588,0
220256,2,4,1001,185,184,1,0,-1,0,27.7709140777588,3.02,30.8357331752777,32.6836371421814,1.84329605102539,0,4.64,37.3524661064148,0,new_learn,38.4090480804443,0
220256,2,5,1001,184,183,1,1,-1,0,38.4090480804443,4.98,43.4358670711517,44.8562750816345,1.41607713699341,0,4.14,49.0358860492706,0,new_learn,50.0655100345612,0
220256,2,6,1001,71,-1000,0,1,0,0,50.0655100345612,5.32,55.4466910362244,57.0666561126709,1.63269186019897,1,4.67,61.779098033905,0,accrej,62.8188881874084,0
220256,2,7,1001,73,-1000,0,1,1,0,62.8188881874084,2.1,64.9786660671234,67.1741571426392,2.20504021644592,0,1.77,68.9856450557709,0,accrej,70.044007062912,0
220256,2,8,1001,184,185,1,1,-1,0,70.044007062912,2.75,72.8520390987396,74.170508146286,1.31276702880859,0,2.33,76.7691490650177,0,new_learn,77.8281471729279,0
220256,2,9,1001,183,184,1,0,-1,0,77.8281471729279,4.18,82.0597500801086,83.4335010051727,1.36800503730774,0,1.86,86.0353600978851,0,new_learn,87.0618810653687,0
220256,2,10,1001,72,-1000,0,0,-1,0,87.0618810653687,1.97,89.085638999939,90.7471840381622,1.67571210861206,0,4.54,95.3352921009064,96.3443322181702,accrej,98.9087870121002,0
220256,2,11,1001,62,-1000,0,1,1,0,98.9087870121002,3.54,102.509341001511,104.313996076584,1.8212730884552,1,4.4,108.751831054688,0,accrej,109.790438175201,0
220256,2,12,1001,185,183,1,1,-1,0,109.790438175201,1.91,111.755844116211,112.746117115021,0.985789060592651,0,2.91,115.688717126846,0,new_learn,116.729071140289,0
220256,2,13,1001,110,-1000,0,1,1,0,116.729071140289,2.53,119.304579019547,120.727624177933,1.4382381439209,1,1.79,122.537457227707,0,accrej,123.599964141846,0
220256,2,14,1001,184,183,1,0,0,0,123.599964141846,2.95,126.587186098099,127.956100225449,1.36342310905457,1,1.03,130.553117036819,0,new_learn,131.578047037125,0
220256,2,15,1001,111,-1000,0,1,-1,0,131.578047037125,3.31,134.938389062881,136.57722902298,1.65109515190125,1,2.95,139.551847219467,0,accrej,140.601469039917,0
220256,2,16,1001,185,183,1,0,1,0,140.601469039917,2.3,142.951858043671,145.560382127762,2.60642313957214,1,2.76,148.352347135544,0,new_learn,149.410531997681,0
220256,2,17,1001,183,185,1,1,1,0,149.410531997681,4.59,154.052287101746,155.456012010574,1.40083503723145,1,1.36,158.035677194595,0,new_learn,166.180641174316,1
220256,2,18,1001,183,184,1,1,0,1,166.180641174316,2,168.235306024551,169.343696117401,1.10413599014282,1,4.76,174.135545015335,0,new_learn,175.162490129471,0
220256,2,19,1001,48,-1000,0,0,1,0,175.162490129471,2.35,177.568877220154,179.746284008026,2.18600511550903,0,1.39,181.199201107025,0,accrej,182.251192092896,0
220256,2,20,1001,184,185,1,0,-1,0,182.251192092896,4.69,187.001844167709,188.792632102966,1.78833293914795,1,1.03,191.395328998566,192.407065153122,new_learn,194.95329618454,0
220256,2,21,1001,185,184,1,0,1,0,194.95329618454,2.52,197.527731180191,198.736760139465,1.20146894454956,0,4.86,203.635297060013,0,new_learn,204.683443069458,0
220256,2,22,1001,109,-1000,0,0,1,0,204.683443069458,2.35,207.085064172745,209.269111156464,2.19427108764648,1,1.46,210.785308122635,0,accrej,211.852735042572,0
220256,2,23,1001,183,184,1,1,1,0,211.852735042572,4.62,216.525243997574,218.163350105286,1.63086915016174,1,5.12,223.335440158844,0,new_learn,231.298393011093,1
220256,2,24,1001,58,-1000,0,0,0,1,231.298393011093,1.81,233.151673078537,234.556963205338,1.41452693939209,1,2.34,236.938881158829,0,accrej,237.996551036835,0
220256,2,25,1001,23,-1000,0,0,1,0,237.996551036835,2.82,240.855406999588,242.437767028809,1.58501195907593,1,4.58,247.068367004395,0,accrej,248.103691101074,0
220256,2,26,1001,60,-1000,0,1,1,0,248.103691101074,4.71,252.853447198868,254.57099199295,1.7157940864563,1,1.85,256.453000068665,0,accrej,257.529156208038,0
220256,2,27,1001,184,185,1,1,-1,0,257.529156208038,2.64,260.219183206558,261.296562194824,1.07368493080139,0,1.14,263.885102033615,0,new_learn,272.058221101761,1
220256,2,28,1001,16,-1000,0,1,1,1,272.058221101761,2.06,274.168291091919,275.600249052048,1.4387788772583,0,1.6,277.235121011734,0,accrej,278.280430078506,0
220256,2,29,1001,25,-1000,0,1,-1,0,278.280430078506,1.75,280.068241119385,281.432081222534,1.37260699272156,0,4.61,286.068542003632,0,accrej,287.113473176956,0
220256,2,30,1001,185,184,1,0,-1,0,287.113473176956,2.51,289.651612043381,290.873344182968,1.21882796287537,0,1.68,293.452116012573,294.462521076202,new_learn,297.019414186478,0
220256,2,31,1001,77,-1000,0,1,-1,0,297.019414186478,1.87,298.934943199158,300.787003993988,1.85411500930786,1,4.4,305.232349157333,0,accrej,306.292698144913,0
220256,2,32,1001,56,-1000,0,0,0,0,306.292698144913,2.22,308.551680088043,309.764690160751,1.21865296363831,1,5.08,314.885097026825,0,accrej,323.25535607338,1
220256,2,33,1001,184,183,1,0,1,1,323.25535607338,2.23,325.53520321846,326.621938228607,1.0837779045105,1,4.97,331.62655711174,0,new_learn,332.653116226196,0
220256,2,34,1001,185,183,1,0,-1,0,332.653116226196,3.84,336.552135229111,338.416320085526,1.85758090019226,1,5.05,343.508879184723,0,new_learn,344.565049171448,0
220256,2,35,1001,183,185,1,1,1,0,344.565049171448,1.97,346.585810184479,347.87146115303,1.27918386459351,1,4.98,352.885751008987,0,new_learn,353.945444107056,0
220256,2,36,1001,108,-1000,0,1,-1,0,353.945444107056,2.3,356.290187120438,357.443844079971,1.16574382781982,1,1.6,359.073504209518,0,accrej,360.112800121307,0
220256,2,37,1001,55,-1000,0,1,1,0,360.112800121307,3.5,363.655966997147,365.361399173737,1.70905709266663,0,2.98,368.371880054474,0,accrej,376.379895210266,1
220256,2,38,1001,183,185,1,1,-1,1,376.379895210266,1.84,378.269060134888,380.293845176697,2.0207200050354,1,2.23,382.870529174805,0,new_learn,391.444933176041,1
220256,2,39,1001,184,185,1,1,-1,1,391.444933176041,2.43,393.919532060623,395.269419193268,1.34656310081482,0,3.77,399.069004058838,0,new_learn,400.105856180191,0
220256,2,40,1001,27,-1000,0,1,-1,0,400.105856180191,3.33,403.485686063766,405.68728017807,2.20887398719788,1,3.96,409.668695211411,410.702033042908,accrej,413.253234148026,0
220256,2,41,1001,185,184,1,1,1,0,413.253234148026,2.38,415.685893058777,417.068577051163,1.37921404838562,1,3.77,420.869286060333,0,new_learn,421.924660205841,0
220256,2,42,1001,92,-1000,0,1,-1,0,421.924660205841,5.87,427.847770214081,429.25945019722,1.42194104194641,1,1.42,430.71875,0,accrej,431.764187097549,0
220256,2,43,1001,183,184,1,1,1,0,431.764187097549,3.36,435.180333137512,437.144631147385,1.95774006843567,1,3.24,440.435632228851,0,new_learn,448.335009098053,1
220256,2,44,1001,59,-1000,0,0,-1,1,448.335009098053,1.77,450.161913156509,451.207300186157,1.05584096908569,1,4.45,455.719046115875,0,accrej,456.761552095413,0
220256,2,45,1001,185,183,1,0,1,0,456.761552095413,1.87,458.6899330616,460.943552017212,2.25192904472351,1,2.69,463.660088062286,0,new_learn,464.715266227722,0
220256,2,46,1001,75,-1000,0,0,-1,0,464.715266227722,1.78,466.542753219604,468.196120023727,1.66657781600952,0,1.12,469.368851184845,0,accrej,470.421756029129,0
220256,2,47,1001,184,183,1,1,-1,0,470.421756029129,2.79,473.258572101593,474.846177101135,1.58053803443909,0,0.95,477.43612408638,0,new_learn,478.494790077209,0
220256,2,48,1001,100,-1000,0,0,0,0,478.494790077209,2.3,480.840979099274,482.43302321434,1.60247015953064,1,4.21,486.707231998444,0,accrej,487.750674009323,0
220256,2,49,1001,184,183,1,0,1,0,487.750674009323,3.03,490.835665225983,492.322464227676,1.48117780685425,1,3.48,495.839292049408,0,new_learn,504.28667807579,1
220256,2,50,1001,37,-1000,0,1,1,1,504.28667807579,2.32,506.654228210449,508.195188045502,1.54387211799622,0,4.05,512.28712105751,513.325881004333,accrej,515.891476154327,0
220256,2,51,1001,15,-1000,0,1,-1,0,515.891476154327,2,517.93655705452,519.701083183289,1.76304197311401,1,5.07,524.81925702095,0,accrej,525.860329151154,0
220256,2,52,1001,29,-1000,0,1,0,0,525.860329151154,2.22,528.119392156601,529.815934181213,1.69472002983093,1,2.65,532.502725124359,0,accrej,533.542116165161,0
220256,2,53,1001,185,183,1,0,1,0,533.542116165161,7.49,541.083193063736,542.209489107132,1.12292504310608,1,3.67,545.91959810257,0,new_learn,546.969630002975,0
220256,2,54,1001,183,185,1,0,-1,0,546.969630002975,3.38,550.403987169266,552.199711084366,1.79007482528687,0,3.31,555.552923202515,0,new_learn,556.607208013535,0
220256,2,55,1001,183,184,1,1,1,0,556.607208013535,2.36,559.019361019135,560.347776174545,1.32272100448608,1,0.75,562.946785211563,0,new_learn,563.968605995178,0
220256,2,56,1001,184,185,1,0,1,0,563.968605995178,3.01,567.036001205444,567.731241226196,0.689522981643677,1,3.09,570.852984189987,0,new_learn,571.907653093338,0
220256,2,57,1001,54,-1000,0,1,1,0,571.907653093338,3.96,575.928764104843,577.157477140427,1.24083399772644,1,3.05,580.252781152725,0,accrej,581.306571006775,0
220256,2,58,1001,185,184,1,0,-1,0,581.306571006775,8.03,589.386430025101,590.781718015671,1.38958597183228,0,0.88,593.386184215546,0,new_learn,594.418947219849,0
220256,2,59,1001,40,-1000,0,0,1,0,594.418947219849,2.5,596.969209194183,598.462076187134,1.5003650188446,1,4.23,602.742308139801,0,accrej,603.815807104111,0
220256,2,60,1001,86,-1000,0,0,0,0,603.815807104111,4.49,608.357964992523,610.009452104568,1.66240215301514,1,1.95,612.007631063461,613.037232160568,accrej,615.597388029099,0
220256,2,61,1001,185,183,1,0,1,0,615.597388029099,4.71,620.356969118118,621.254154205322,0.892040014266968,1,2.23,623.856068134308,0,new_learn,624.895317077637,0
220256,2,62,1001,184,183,1,0,1,0,624.895317077637,7.18,632.122341156006,635.014873027802,2.88832592964172,1,1.6,637.604466199875,0,new_learn,638.661899089813,0
220256,2,63,1001,184,185,1,0,1,0,638.661899089813,4.15,642.853800058365,643.681918144226,0.826728105545044,1,1.24,646.269930124283,0,new_learn,647.32749414444,0
220256,2,64,1001,85,-1000,0,0,1,0,647.32749414444,3.25,650.619671106339,652.422730207443,1.80515193939209,1,3.02,655.503513097763,0,accrej,665.187863111496,1
220256,2,65,1001,46,-1000,0,0,-1,1,665.187863111496,3.52,668.752629995346,670.900960206985,2.15367102622986,1,4.03,674.969344139099,0,accrej,676.022353172302,0
220256,2,66,1001,17,-1000,0,1,1,0,676.022353172302,2.41,678.486878156662,679.927608013153,1.45104694366455,1,3.35,683.302745103836,0,accrej,684.371813058853,0
220256,2,67,1001,183,184,1,1,1,0,684.371813058853,1.76,686.188747167587,688.553641080856,2.36012697219849,1,4.4,692.997003078461,0,new_learn,694.034078121185,0
220256,2,68,1001,185,184,1,0,1,0,694.034078121185,3.45,697.553347110748,699.333908081055,1.77835488319397,0,1.97,701.929455041885,0,new_learn,702.985462188721,0
220256,2,69,1001,36,-1000,0,0,-1,0,702.985462188721,1.78,704.819704055786,706.834865093231,2.02733206748962,0,4.88,711.752641201019,0,accrej,712.804868221283,0
220256,2,70,1001,33,-1000,0,0,-1,0,712.804868221283,4.28,717.136381149292,718.97953915596,1.85637998580933,0,4.15,723.176301002502,724.190986156464,accrej,726.747395992279,0
220256,2,71,1001,98,-1000,0,0,1,0,726.747395992279,4.06,730.858643054962,733.581031084061,2.73814010620117,1,2.04,735.669372081757,0,accrej,744.081451177597,1
220256,2,72,1001,64,-1000,0,0,1,1,744.081451177597,2.27,746.403070211411,748.291892051697,1.89961910247803,1,0.92,749.273015022278,0,accrej,750.343633174896,0
220256,2,73,1001,39,-1000,0,1,1,0,750.343633174896,2.38,752.772839069366,754.135958194733,1.36524415016174,1,0.93,755.105465173721,0,accrej,765.810860157013,1
220256,2,74,1001,183,185,1,1,1,1,765.810860157013,4.54,770.386743068695,771.583747148514,1.1955189704895,1,2.34,774.169989109039,0,new_learn,775.22776722908,0
220256,2,75,1001,183,185,1,1,-1,0,775.22776722908,3.08,778.353115081787,779.326356172562,0.971168994903564,1,1.02,781.902798175812,0,new_learn,782.955883026123,0
220256,2,76,1001,35,-1000,0,0,-1,0,782.955883026123,1.97,784.969372034073,786.28418803215,1.32175421714783,1,3.66,789.985995054245,0,accrej,791.035136222839,0
220256,2,77,1001,185,183,1,0,1,0,791.035136222839,2.95,794.036381006241,795.367400169373,1.32633113861084,1,5.25,800.653312206268,0,new_learn,801.710312128067,0
220256,2,78,1001,184,185,1,1,1,0,801.710312128067,2.23,803.986020088196,805.266905069351,1.27516293525696,0,2.52,807.85326218605,0,new_learn,816.798948049545,1
220256,2,79,1001,183,184,1,1,1,1,816.798948049545,2.83,819.680470228195,820.404014110565,0.716128826141357,1,4.32,824.763597011566,0,new_learn,825.820953130722,0
220256,2,80,1001,31,-1000,0,0,1,0,825.820953130722,3.96,829.83610701561,832.636883020401,2.81355094909668,1,3.51,836.203751087189,837.233096122742,accrej,839.789244174957,0
220256,2,81,1001,42,-1000,0,1,0,0,839.789244174957,1.93,841.769773006439,843.695793151855,1.93336796760559,1,2.49,846.236379146576,0,accrej,847.275937080383,0
220256,2,82,1001,184,183,1,0,1,0,847.275937080383,1.81,849.135992050171,850.937736034393,1.79726815223694,1,4.03,855.009231090546,0,new_learn,856.040807008743,0
220256,2,83,1001,68,-1000,0,0,0,0,856.040807008743,2.59,858.67547917366,860.573842048645,1.91056704521179,1,1.97,862.60292506218,0,accrej,863.650218009949,0
220256,2,84,1001,185,184,1,1,-1,0,863.650218009949,5,868.690674066544,871.291149139404,2.59934115409851,1,4.97,876.290270090103,0,new_learn,,
220256,3,1,1002,188,186,1,0,1,0,2.5586199760437,2.36,4.97445487976074,6.3629310131073,1.38038492202759,1,4.26,10.6629369258881,0,new_learn,11.7215659618378,0
220256,3,2,1002,186,187,1,1,1,0,11.7215659618378,2.35,14.1125349998474,15.6583340167999,1.54054880142212,1,0.79,18.2463428974152,0,new_learn,19.3049697875977,0
220256,3,3,1002,43,-1000,0,0,1,0,19.3049697875977,1.81,21.162889957428,23.0141649246216,1.85956692695618,1,2.76,25.8294699192047,0,accrej,26.8701868057251,0
220256,3,4,1002,186,188,1,1,1,0,26.8701868057251,3.6,30.5127959251404,31.5724408626556,1.05520296096802,1,1.85,34.1710259914398,0,new_learn,35.225900888443,0
220256,3,5,1002,97,-1000,0,0,1,0,35.225900888443,4.41,39.6961998939514,42.5892798900604,2.90951204299927,1,4.02,46.6627089977264,0,accrej,47.6905398368835,0
220256,3,6,1002,187,188,1,1,0,0,47.6905398368835,2.58,50.3185958862305,52.4316499233246,2.10428595542908,0,3.36,55.8182179927826,0,new_learn,56.8785629272461,0
220256,3,7,1002,187,186,1,0,1,0,56.8785629272461,3.52,60.450443983078,61.5955858230591,1.13854002952576,1,2.42,64.183758020401,0,new_learn,65.2435779571533,0
220256,3,8,1002,53,-1000,0,0,-1,0,65.2435779571533,2.06,67.3457958698273,68.8416199684143,1.50740098953247,1,1.15,70.0493838787079,0,accrej,71.0939018726349,0
220256,3,9,1002,188,187,1,1,0,0,71.0939018726349,3.94,75.0652918815613,76.1316678524017,1.06520009040833,1,1.77,78.715206861496,0,new_learn,79.7745938301086,0
220256,3,10,1002,187,186,1,0,0,0,79.7745938301086,5.24,85.0474169254303,85.8247208595276,0.774980068206787,1,4.92,90.7802410125732,91.7908790111542,new_learn,94.3502798080444,0
220256,3,11,1002,188,187,1,1,1,0,94.3502798080444,1.78,96.1811048984528,97.3039009571075,1.11952209472656,1,4.91,102.246351957321,0,new_learn,103.305598020554,0
220256,3,12,1002,186,187,1,0,-1,0,103.305598020554,4.18,107.529141902924,108.919806957245,1.38468503952026,0,3.03,111.979546785355,0,new_learn,113.041880846024,0
220256,3,13,1002,50,-1000,0,0,1,0,113.041880846024,2.3,115.396185874939,116.313194990158,0.92425799369812,1,2.95,119.312416791916,0,accrej,120.365716934204,0
220256,3,14,1002,30,-1000,0,0,-1,0,120.365716934204,1.86,122.279186010361,123.797691822052,1.53159618377686,0,4.97,128.82489490509,0,accrej,129.880479812622,0
220256,3,15,1002,188,186,1,1,-1,0,129.880479812622,2.08,132.007714986801,133.387221813202,1.37660980224609,0,0.79,135.974349975586,0,new_learn,137.030719995499,0
220256,3,16,1002,186,188,1,1,0,0,137.030719995499,3.13,140.212771892548,142.051867961884,1.8339409828186,1,5.21,147.306175947189,0,new_learn,148.354995012283,0
220256,3,17,1002,187,188,1,1,0,0,148.354995012283,2.11,150.529195785522,151.908655881882,1.37294101715088,0,2.71,154.654600858688,0,new_learn,155.676702976227,0
220256,3,18,1002,187,188,1,1,0,0,155.676702976227,6.12,161.845690011978,163.559823989868,1.70793700218201,0,1.2,166.169848918915,0,new_learn,167.193678855896,0
220256,3,19,1002,87,-1000,0,1,0,0,167.193678855896,1.84,169.079294919968,171.175332784653,2.10760807991028,1,4.22,175.429039001465,0,accrej,176.468333959579,0
220256,3,20,1002,188,186,1,0,0,0,176.468333959579,6.9,183.417786836624,184.537351846695,1.11276912689209,1,4.3,188.867268800735,189.876426935196,new_learn,192.417320013046,0
220256,3,21,1002,186,188,1,1,-1,0,192.417320013046,1.84,194.312754869461,195.665005922318,1.35023999214172,1,4.15,199.848858833313,0,new_learn,200.877118825912,0
220256,3,22,1002,57,-1000,0,1,0,0,200.877118825912,2.35,203.265117883682,205.35607790947,2.10024809837341,1,4.18,209.581159830093,0,accrej,210.642024993896,0
220256,3,23,1002,91,-1000,0,1,-1,0,210.642024993896,2.07,212.748966932297,214.956142902374,2.2121889591217,0,4.74,219.729581832886,0,accrej,220.786724805832,0
220256,3,24,1002,49,-1000,0,0,0,0,220.786724805832,2.63,223.462301015854,224.676957845688,1.22742295265198,1,3.24,227.979059934616,0,accrej,229.032896995544,0
220256,3,25,1002,41,-1000,0,0,-1,0,229.032896995544,3.6,232.679443836212,233.672308921814,0.993578910827637,1,1.82,235.54570889473,0,accrej,236.606057882309,0
220256,3,26,1002,18,-1000,0,1,1,0,236.606057882309,7.21,243.862406015396,246.08936882019,2.23395490646362,1,1.03,247.145598888397,0,accrej,248.197630882263,0
220256,3,27,1002,104,-1000,0,0,1,0,248.197630882263,3.73,251.979064941406,253.560348987579,1.5924129486084,1,5.05,258.645613908768,0,accrej,259.669684886932,0
220256,3,28,1002,186,187,1,1,1,0,259.669684886932,3.5,263.212710857391,264.285439968109,1.06807494163513,1,3.29,267.596186876297,0,new_learn,275.568856954575,1
220256,3,29,1002,188,187,1,0,0,1,275.568856954575,1.85,277.462284803391,278.80048084259,1.33546209335327,0,2.97,281.805100917816,0,new_learn,298.464581012726,2
220256,3,30,1002,68,-1000,0,0,0,2,298.464581012726,2.69,301.202232837677,302.254772901535,1.06029105186462,1,0.91,303.21878194809,304.237917900085,accrej,306.772964954376,0
220256,3,31,1002,106,-1000,0,0,1,0,306.772964954376,5.69,312.500765800476,313.643696784973,1.1473388671875,1,5.29,318.983403921127,0,accrej,320.024258852005,0
220256,3,32,1002,45,-1000,0,0,0,0,320.024258852005,5.24,325.312238931656,326.479317903519,1.18115305900574,0,1.26,327.781994819641,0,accrej,328.833177804947,0
220256,3,33,1002,187,186,1,0,1,0,328.833177804947,7.74,336.614597797394,337.565235853195,0.944451093673706,1,1.88,340.163689851761,0,new_learn,341.190724849701,0
220256,3,34,1002,84,-1000,0,1,-1,0,341.190724849701,2.45,343.680255889893,345.796424865723,2.12459182739258,1,4.89,350.728937864304,0,accrej,360.794450998306,1
220256,3,35,1002,89,-1000,0,0,1,1,360.794450998306,3.96,364.812560796738,366.196995973587,1.38991808891296,1,5.08,371.329317808151,0,accrej,372.383589982986,0
220256,3,36,1002,187,186,1,0,1,0,372.383589982986,2.33,374.759172916412,375.855276823044,1.09026908874512,1,1.09,378.429407835007,0,new_learn,379.478318929672,0
220256,3,37,1002,186,187,1,1,1,0,379.478318929672,1.83,381.362514019012,383.521160840988,2.15406584739685,1,1.19,386.096085786819,0,new_learn,387.1541929245,0
220256,3,38,1002,52,-1000,0,0,-1,0,387.1541929245,3.29,390.478801012039,391.981746912003,1.50819087028503,1,2.56,394.578809976578,0,accrej,395.648180961609,0
220256,3,39,1002,91,-1000,0,0,1,0,395.648180961609,3.36,399.062361955643,400.46266078949,1.4094340801239,1,3.09,403.622308969498,0,accrej,412.067276954651,1
220256,3,40,1002,188,186,1,0,0,1,412.067276954651,2.31,414.428881883621,415.294309854507,0.8609619140625,1,2.64,417.970477819443,418.980893850327,new_learn,421.529935836792,0
220256,3,41,1002,37,-1000,0,1,-1,0,421.529935836792,4.84,426.429112911224,428.050468921661,1.63568902015686,0,0.92,429.002275943756,0,accrej,430.042284965515,0
220256,3,42,1002,62,-1000,0,1,-1,0,430.042284965515,3.2,433.284739971161,434.931646823883,1.65850114822388,1,3.05,438.029002904892,0,accrej,439.110996007919,0
220256,3,43,1002,188,187,1,0,-1,0,439.110996007919,1.93,441.100662946701,442.2121489048,1.10685086250305,0,3.58,445.816735982895,0,new_learn,454.214526891708,1
220256,3,44,1002,187,188,1,0,1,1,454.214526891708,2.25,456.514880895615,457.371962785721,0.855408906936646,1,1.01,459.948019981384,0,new_learn,460.971980810165,0
220256,3,45,1002,186,188,1,1,1,0,460.971980810165,3.53,464.563887834549,466.148151874542,1.58211517333984,1,1.64,468.730437994003,0,new_learn,477.589986801147,1
220256,3,46,1002,24,-1000,0,1,1,1,477.589986801147,2.73,480.362482786179,482.368855953217,2.01252412796021,1,3.44,485.845431804657,0,accrej,486.901262998581,0
220256,3,47,1002,188,187,1,0,0,0,486.901262998581,1.86,488.812336921692,489.908316850662,1.08905005455017,0,1.74,492.495352983475,0,new_learn,493.517181873322,0
220256,3,48,1002,45,-1000,0,0,-1,0,493.517181873322,3.99,497.562438964844,498.61314702034,1.06392598152161,0,1.98,500.645700931549,0,accrej,501.686149835587,0
220256,3,49,1002,187,188,1,1,0,0,501.686149835587,4.13,505.862327814102,506.780085802078,0.912518978118896,0,1.08,509.362552881241,0,new_learn,510.419993877411,0
220256,3,50,1002,65,-1000,0,0,-1,0,510.419993877411,4.74,515.212324857712,516.794368982315,1.59838604927063,1,3.99,520.828644990921,521.839099884033,accrej,524.397911787033,0
220256,3,51,1002,186,187,1,1,1,0,524.397911787033,1.88,526.32866191864,527.314718961716,0.979531049728394,1,3.83,531.178560018539,0,new_learn,532.201928853989,0
220256,3,52,1002,53,-1000,0,0,1,0,532.201928853989,3.05,535.304557800293,536.631425857544,1.33964800834656,1,1.44,538.121031999588,0,accrej,539.160972833633,0
220256,3,53,1002,42,-1000,0,0,-1,0,539.160972833633,3.02,542.229044914246,543.880697011948,1.6546847820282,0,1.27,545.225817918777,0,accrej,554.370646953583,1
220256,3,54,1002,92,-1000,0,1,0,1,554.370646953583,3.02,557.435031890869,558.697052001953,1.27024483680725,1,5.17,563.901208877563,0,accrej,564.973124980927,0
220256,3,55,1002,187,186,1,0,1,0,564.973124980927,3.97,568.983633995056,569.850942850113,0.862414836883545,1,2.17,572.445239782333,0,new_learn,573.467750787735,0
220256,3,56,1002,188,186,1,0,0,0,573.467750787735,1.89,575.399243831635,576.867501020432,1.46072006225586,1,5.21,582.131770849228,0,new_learn,583.156821966171,0
220256,3,57,1002,186,188,1,1,0,0,583.156821966171,1.89,585.081332921982,586.311277866364,1.2256600856781,1,4.81,591.164197921753,0,new_learn,592.225281953812,0
220256,3,58,1002,187,188,1,0,1,0,592.225281953812,2.48,594.751817941666,596.403302907944,1.64664006233215,1,4.55,600.979147911072,0,new_learn,602.011729001999,0
220256,3,59,1002,57,-1000,0,0,-1,0,602.011729001999,2.14,604.214942932129,605.528301954269,1.33055400848389,0,0.83,606.395113945007,0,accrej,607.446088790894,0
220256,3,60,1002,79,-1000,0,0,1,0,607.446088790894,2,609.495659828186,610.868113994598,1.38031697273254,1,4.85,615.762164831161,616.79141998291,accrej,619.318087816238,0
220256,3,61,1002,16,-1000,0,0,1,0,619.318087816238,2.6,621.96221280098,624.244251012802,2.2835521697998,1,4.56,628.845232009888,0,accrej,629.884432792664,0
220256,3,62,1002,186,188,1,0,1,0,629.884432792664,8.2,638.128460884094,639.502686977386,1.3688440322876,0,4.36,643.878906011581,0,new_learn,652.073431015015,1
220256,3,63,1002,188,187,1,0,0,1,652.073431015015,2.05,654.172144889832,655.034101963043,0.858545064926147,0,1.7,657.621474981308,0,new_learn,658.643523931503,0
220256,3,64,1002,108,-1000,0,0,-1,0,658.643523931503,2.02,660.712033987045,661.95923781395,1.25511503219604,0,1.11,663.120976924896,0,accrej,664.155360937119,0
220256,3,65,1002,186,187,1,1,1,0,664.155360937119,2.28,666.487291812897,669.468698978424,2.97496104240417,1,2.73,672.245074987411,0,new_learn,681.497586965561,1
220256,3,66,1002,41,-1000,0,0,-1,1,681.497586965561,3.16,684.701435804367,687.448689937592,2.75348901748657,1,1.78,689.28443479538,0,accrej,690.317045927048,0
220256,3,67,1002,96,-1000,0,1,0,0,690.317045927048,1.81,692.18395781517,693.272728919983,1.10235810279846,1,0.71,694.016875982285,0,accrej,695.083110809326,0
220256,3,68,1002,188,186,1,0,0,0,695.083110809326,1.99,697.128691911697,698.08232998848,0.949558973312378,1,4.12,702.232808828354,0,new_learn,703.293673992157,0
220256,3,69,1002,187,186,1,0,1,0,703.293673992157,3.56,706.898363828659,707.850337982178,0.947070121765137,1,4.8,712.680818796158,0,new_learn,713.704123973846,0
220256,3,70,1002,67,-1000,0,0,1,0,713.704123973846,2.66,716.397414922714,718.575335979462,2.17863893508911,1,5.09,723.729865789413,724.763932943344,accrej,727.329538822174,0
220256,3,71,1002,98,-1000,0,0,1,0,727.329538822174,3.61,730.97854590416,731.892035007477,0.913290023803711,1,4.73,736.661618947983,0,accrej,737.713527917862,0
220256,3,72,1002,22,-1000,0,0,1,0,737.713527917862,1.81,739.57851600647,741.425926923752,1.85783815383911,1,1.38,742.844986915588,0,accrej,743.884093999863,0
220256,3,73,1002,105,-1000,0,1,-1,0,743.884093999863,2.12,746.044989824295,747.45375585556,1.41662883758545,1,2.01,749.495015859604,0,accrej,750.537451982498,0
220256,3,74,1002,50,-1000,0,1,1,0,750.537451982498,2.96,753.544902801514,754.825646877289,1.28964400291443,1,1.18,756.04495382309,0,accrej,757.086938858032,0
220256,3,75,1002,188,187,1,1,1,0,757.086938858032,2.03,759.162232875824,760.675132989883,1.51150894165039,1,1.45,763.262069940567,0,new_learn,764.303498983383,0
220256,3,76,1002,186,188,1,1,-1,0,764.303498983383,1.84,766.190617799759,767.314345836639,1.11727714538574,1,4.23,771.57860994339,0,new_learn,772.638020992279,0
220256,3,77,1002,78,-1000,0,1,0,0,772.638020992279,3.09,775.789788007736,776.836869955063,1.05839800834656,1,2.91,779.788985967636,0,accrej,780.851161956787,0
220256,3,78,1002,83,-1000,0,0,1,0,780.851161956787,4.22,785.122720956802,786.463340997696,1.34834313392639,1,4.62,791.144750833511,0,accrej,792.197918891907,0
220256,3,79,1002,31,-1000,0,0,1,0,792.197918891907,1.87,794.1205098629,795.554900884628,1.44073700904846,1,4.82,800.436970949173,0,accrej,801.474708795547,0
220256,3,80,1002,188,186,1,0,0,0,801.474708795547,4.25,805.768718957901,806.909564971924,1.13733983039856,1,3.27,810.218518972397,811.229098796844,new_learn,813.775195837021,0
220256,3,81,1002,186,187,1,1,0,0,813.775195837021,2.07,815.884081840515,816.989105939865,1.10186195373535,1,4.99,822.033094882965,0,new_learn,823.054003000259,0
220256,3,82,1002,187,186,1,0,-1,0,823.054003000259,2.96,826.066111803055,827.60893201828,1.53753113746643,1,1.29,830.199319839478,0,new_learn,838.182703971863,1
220256,3,83,1002,187,188,1,1,-1,1,838.182703971863,1.86,840.09475684166,840.922024011612,0.82265305519104,0,4.71,845.663769960403,0,new_learn,846.712044000626,0
220256,3,84,1002,94,-1000,0,1,1,0,846.712044000626,5,851.762617826462,853.02592587471,1.26503992080688,0,0.95,854.012293815613,0,accrej,,
220256,4,1,1003,102,-1000,0,0,-1,0,2.54605388641357,2.3,4.89435386657715,6.29960298538208,1.40599203109741,0,2.21,8.54370379447937,0,accrej,9.58687090873718,0
220256,4,2,1003,113,-1000,0,1,1,0,9.58687090873718,1.78,11.4096908569336,12.9500968456268,1.55479502677917,1,3.75,16.7428529262543,0,accrej,17.7863049507141,0
220256,4,3,1003,189,190,1,0,-1,0,17.7863049507141,3.26,21.0761468410492,22.5464580059052,1.46505618095398,0,4.91,27.492931842804,0,new_learn,28.5190148353577,0
220256,4,4,1003,190,191,1,1,1,0,28.5190148353577,3.14,31.6928298473358,32.66477394104,0.965249061584473,0,4.46,37.1594638824463,0,new_learn,38.1812448501587,0
220256,4,5,1003,189,191,1,0,-1,0,38.1812448501587,3.02,41.2428247928619,42.0741930007935,0.829852104187012,0,3.17,45.2761340141296,0,new_learn,46.3007299900055,0
220256,4,6,1003,74,-1000,0,0,0,0,46.3007299900055,2.67,49.0094318389893,49.8528368473053,0.849869012832642,1,4.76,54.6594228744507,0,accrej,55.7114958763123,0
220256,4,7,1003,112,-1000,0,0,1,0,55.7114958763123,1.88,57.6431570053101,58.8265068531036,1.18687796592712,1,3.55,62.4427239894867,0,accrej,63.4829638004303,0
220256,4,8,1003,190,189,1,1,1,0,63.4829638004303,1.97,65.4933218955994,67.2648839950562,1.76929903030396,0,5.13,72.4266419410706,0,new_learn,73.4797348976135,0
220256,4,9,1003,33,-1000,0,1,1,0,73.4797348976135,2.67,76.1927378177643,78.8134489059448,2.62625503540039,1,2.7,81.5340459346771,0,accrej,82.5822148323059,0
220256,4,10,1003,70,-1000,0,0,1,0,82.5822148323059,2.73,85.3670198917389,87.1102979183197,1.75111103057861,1,2.86,90.0263760089874,91.0493998527527,accrej,93.5904929637909,0
220256,4,11,1003,191,189,1,0,1,0,93.5904929637909,4.7,98.3319759368896,99.7556920051575,1.41847705841064,1,2.66,102.430855989456,0,new_learn,103.453696012497,0
220256,4,12,1003,191,190,1,0,-1,0,103.453696012497,1.86,105.359365940094,106.874400854111,1.5132360458374,0,4.89,111.780122995377,0,new_learn,112.838485002518,0
220256,4,13,1003,190,191,1,1,-1,0,112.838485002518,5.96,118.843197822571,120.053622961044,1.20702910423279,0,3.7,123.778520822525,0,new_learn,124.830920934677,0
220256,4,14,1003,82,-1000,0,0,1,0,124.830920934677,4.35,129.227699995041,130.357445001602,1.13175106048584,1,2.45,132.860239028931,0,accrej,133.894482851028,0
220256,4,15,1003,51,-1000,0,1,1,0,133.894482851028,2.54,136.47655582428,137.900970935822,1.42758107185364,1,5.12,143.0428378582,0,accrej,144.088830947876,0
220256,4,16,1003,15,-1000,0,1,-1,0,144.088830947876,1.84,145.959438800812,148.119566917419,2.16233491897583,1,3.16,151.309237003326,0,accrej,152.351320981979,0
220256,4,17,1003,19,-1000,0,1,1,0,152.351320981979,2.41,154.809544801712,156.340633869171,1.54033899307251,0,2.45,158.825958967209,0,accrej,159.895936965942,0
220256,4,18,1003,190,189,1,1,-1,0,159.895936965942,2.84,162.776008844376,163.789759874344,1.01210117340088,0,1.54,166.376402854919,0,new_learn,167.436560869217,0
220256,4,19,1003,56,-1000,0,1,1,0,167.436560869217,2.28,169.759208917618,171.015954017639,1.26853489875793,1,3.4,174.455017805099,0,accrej,175.50021481514,0
220256,4,20,1003,191,189,1,0,1,0,175.50021481514,3.74,179.287391901016,181.065998792648,1.77354407310486,1,3.34,184.436592817307,185.440253019333,new_learn,187.980464935303,0
220256,4,21,1003,189,191,1,1,-1,0,187.980464935303,2.04,190.070057868958,191.21221780777,1.13888502120972,1,1.11,193.79319691658,0,new_learn,194.85018992424,0
220256,4,22,1003,191,190,1,0,1,0,194.85018992424,3.06,197.959553003311,198.984258890152,1.02159285545349,0,1.02,201.575927972794,0,new_learn,202.604417800903,0
220256,4,23,1003,189,190,1,0,0,0,202.604417800903,2.99,205.642935991287,206.952973842621,1.30796885490417,0,1.58,209.533677816391,0,new_learn,210.589038848877,0
220256,4,24,1003,190,189,1,1,-1,0,210.589038848877,2.43,213.066677808762,213.897076845169,0.823561191558838,0,4.19,218.125689983368,0,new_learn,219.148211956024,0
220256,4,25,1003,17,-1000,0,0,-1,0,219.148211956024,2.77,221.975863933563,222.919710874557,0.954664945602417,1,1.63,224.598275899887,0,accrej,225.640049934387,0
220256,4,26,1003,190,191,1,1,-1,0,225.640049934387,1.76,227.442430973053,228.571056842804,1.1235499382019,0,0.95,231.147727012634,0,new_learn,232.206830978394,0
220256,4,27,1003,189,191,1,1,1,0,232.206830978394,2.42,234.680464029312,236.120674848557,1.43266296386719,1,1.03,238.712955951691,0,new_learn,239.765115976334,0
220256,4,28,1003,71,-1000,0,0,1,0,239.765115976334,2.39,242.195791006088,243.140685796738,0.946171998977661,1,4.85,248.046694993973,0,accrej,249.084491968155,0
220256,4,29,1003,191,189,1,1,-1,0,249.084491968155,5.18,254.311152935028,255.364657878876,1.05146288871765,0,2.3,257.944015026093,0,new_learn,258.982839822769,0
220256,4,30,1003,20,-1000,0,1,1,0,258.982839822769,4.15,263.176493883133,264.772426843643,1.60136294364929,1,5.17,269.975631952286,271.007929801941,accrej,273.562481880188,0
220256,4,31,1003,106,-1000,0,0,1,0,273.562481880188,3.65,277.274729967117,279.782329797745,2.5212619304657,1,0.83,280.659621953964,0,accrej,281.715492010117,0
220256,4,32,1003,25,-1000,0,1,0,0,281.715492010117,2.34,284.092412948608,285.343802928925,1.25472092628479,0,2.56,287.926206827164,0,accrej,288.968261003494,0
220256,4,33,1003,93,-1000,0,0,-1,0,288.968261003494,2.39,291.392271995544,293.164942026138,1.77661204338074,0,2.25,295.475621938705,0,accrej,296.515452861786,0
220256,4,34,1003,99,-1000,0,1,1,0,296.515452861786,4.96,301.525782823563,303.176886796951,1.65460681915283,1,0.88,304.092253923416,0,accrej,305.163537025452,0
220256,4,35,1003,109,-1000,0,0,1,0,305.163537025452,2.07,307.275537014008,309.090248823166,1.8207221031189,1,2.84,311.975574016571,0,accrej,313.01532793045,0
220256,4,36,1003,29,-1000,0,1,1,0,313.01532793045,1.8,314.860805988312,317.22229886055,2.3671350479126,1,1.4,318.659120798111,0,accrej,319.702082872391,0
220256,4,37,1003,191,190,1,0,1,0,319.702082872391,2.11,321.868733882904,323.386823892593,1.51258611679077,0,1.81,325.967810869217,0,new_learn,326.991644859314,0
220256,4,38,1003,189,190,1,1,1,0,326.991644859314,2.7,329.742220878601,330.541679859161,0.79455304145813,1,1.09,333.133484840393,0,new_learn,334.156177997589,0
220256,4,39,1003,48,-1000,0,0,-1,0,334.156177997589,3.69,337.892203807831,339.173687934875,1.29288291931152,0,1.32,340.54233288765,0,accrej,341.581972837448,0
220256,4,40,1003,54,-1000,0,0,-1,0,341.581972837448,8.7,350.342222929001,351.974270820618,1.6401469707489,0,1.15,353.17546081543,354.188382863998,accrej,356.742209911346,0
220256,4,41,1003,97,-1000,0,1,1,0,356.742209911346,1.94,358.73037481308,360.380597829819,1.65652298927307,0,2.6,363.029608011246,0,accrej,364.069941997528,0
220256,4,42,1003,44,-1000,0,0,0,0,364.069941997528,2.48,366.595794916153,368.332974910736,1.7462329864502,1,4.6,372.978320837021,0,accrej,374.021008014679,0
220256,4,43,1003,61,-1000,0,0,1,0,374.021008014679,3.06,377.125968933105,378.629354953766,1.51549220085144,1,1.24,379.910830974579,0,accrej,380.945593833923,0
220256,4,44,1003,189,191,1,1,1,0,380.945593833923,2.53,383.526873826981,384.847211837769,1.31521415710449,1,1.29,387.426821947098,0,new_learn,388.487212896347,0
220256,4,45,1003,190,189,1,1,-1,0,388.487212896347,2.46,390.992976903915,391.970721960068,0.97207498550415,0,5.13,397.125555992126,0,new_learn,398.177904844284,0
220256,4,46,1003,191,189,1,0,1,0,398.177904844284,5.5,403.725700855255,404.781311988831,1.04967713356018,1,2.83,407.642567873001,0,new_learn,408.70286989212,0
220256,4,47,1003,101,-1000,0,0,1,0,408.70286989212,3.78,412.52568602562,414.17995095253,1.65749788284302,1,2.97,417.192004919052,0,accrej,418.245281934738,0
220256,4,48,1003,18,-1000,0,1,1,0,418.245281934738,2.36,420.65899181366,421.773381948471,1.12292194366455,1,2.41,424.209050893784,0,accrej,425.278936862946,0
220256,4,49,1003,191,190,1,0,-1,0,425.278936862946,1.86,427.192492961884,428.591753959656,1.39468288421631,0,5.09,433.709358930588,0,new_learn,434.77595281601,0
220256,4,50,1003,189,190,1,1,1,0,434.77595281601,2.09,436.90881896019,438.841971874237,1.92820906639099,1,3.94,442.808866977692,443.811275005341,new_learn,446.353817939758,0
220256,4,51,1003,190,191,1,1,1,0,446.353817939758,1.92,448.325600862503,449.478081941605,1.14686393737793,0,0.87,452.068537950516,0,new_learn,453.131508827209,0
220256,4,52,1003,189,191,1,0,1,0,453.131508827209,1.82,455.001489877701,457.043802976608,2.03607392311096,0,4.42,461.517138957977,0,new_learn,462.552352905273,0
220256,4,53,1003,85,-1000,0,1,-1,0,462.552352905273,2.52,465.125978946686,466.383183002472,1.26526308059692,0,3.03,469.449659824371,0,accrej,470.489676952362,0
220256,4,54,1003,191,190,1,1,1,0,470.489676952362,4.76,475.299045801163,476.66704583168,1.36157917976379,1,3.68,480.392680883408,0,new_learn,481.414523839951,0
220256,4,55,1003,32,-1000,0,1,-1,0,481.414523839951,2.64,484.098406791687,485.378466844559,1.28268814086914,1,0.71,486.113982915878,0,accrej,487.15003991127,0
220256,4,56,1003,90,-1000,0,0,-1,0,487.15003991127,1.85,489.046840906143,490.644222021103,1.60633611679077,0,5.29,495.979417800903,0,accrej,497.034442901611,0
220256,4,57,1003,190,191,1,0,1,0,497.034442901611,5.05,502.143049955368,503.515540838242,1.36850500106812,1,1.01,506.1119120121,0,new_learn,507.172385931015,0
220256,4,58,1003,191,189,1,0,-1,0,507.172385931015,2.71,509.911054849625,511.490547895432,1.57371115684509,1,5.05,516.576643943787,0,new_learn,517.598482847214,0
220256,4,59,1003,189,190,1,1,1,0,517.598482847214,1.96,519.593150854111,521.225476980209,1.6275520324707,1,4.98,526.25951385498,0,new_learn,527.282369852066,0
220256,4,60,1003,190,189,1,0,-1,0,527.282369852066,2.29,529.609508991241,531.452193975449,1.84088897705078,1,0.91,534.02669095993,535.037015914917,new_learn,537.585280895233,0
220256,4,61,1003,64,-1000,0,0,1,0,537.585280895233,2.03,539.659646987915,541.012223005295,1.36267185211182,1,4.37,545.426863908768,0,accrej,546.498940944672,0
220256,4,62,1003,190,189,1,0,1,0,546.498940944672,4.63,551.176316022873,552.570314884186,1.38916277885437,1,4.71,557.321564912796,0,new_learn,558.344449996948,0
220256,4,63,1003,89,-1000,0,0,1,0,558.344449996948,3.76,562.154546976089,563.119411945343,0.973685026168823,1,3.14,566.321354866028,0,accrej,567.391460895538,0
220256,4,64,1003,189,190,1,1,1,0,567.391460895538,3.21,570.653713941574,572.021448850632,1.3622510433197,1,4.53,576.593603849411,0,new_learn,577.657079935074,0
220256,4,65,1003,30,-1000,0,0,-1,0,577.657079935074,3.4,581.102154970169,582.271075963974,1.17934203147888,0,0.71,583.035207986832,0,accrej,584.089945793152,0
220256,4,66,1003,189,191,1,1,-1,0,584.089945793152,2.02,586.160178899765,588.232959985733,2.06762409210205,1,2.06,590.817801952362,0,new_learn,591.867770910263,0
220256,4,67,1003,36,-1000,0,0,-1,0,591.867770910263,2.4,594.317164897919,595.458729028702,1.15182018280029,0,4.68,600.183073997498,0,accrej,601.236637830734,0
220256,4,68,1003,191,190,1,1,-1,0,601.236637830734,2.06,603.343232870102,605.583993911743,2.23483800888062,1,0.87,608.193207025528,0,new_learn,609.218954801559,0
220256,4,69,1003,190,191,1,1,1,0,609.218954801559,3.31,612.593333005905,615.121579885483,2.52178287506104,0,4.99,620.14702796936,0,new_learn,621.167905807495,0
220256,4,70,1003,43,-1000,0,1,-1,0,621.167905807495,4.47,625.679780006409,627.376703977585,1.69969391822815,0,3.59,631.012808799744,632.034157991409,accrej,634.562011957169,0
220256,4,71,1003,110,-1000,0,0,0,0,634.562011957169,5.67,640.278139829636,642.061219930649,1.78557586669922,1,4.61,646.727542877197,0,accrej,647.766708850861,0
220256,4,72,1003,191,189,1,0,1,0,647.766708850861,3.57,651.377269983292,652.595317840576,1.21088886260986,1,4.12,656.743963956833,0,new_learn,657.776830911636,0
220256,4,73,1003,103,-1000,0,0,1,0,657.776830911636,2.72,660.543516874313,661.831754922867,1.29364395141602,1,3.55,665.427037000656,0,accrej,666.479556798935,0
220256,4,74,1003,88,-1000,0,0,1,0,666.479556798935,2.26,668.79115486145,669.884232997894,1.10794711112976,1,5.29,675.21026802063,0,accrej,676.249967813492,0
220256,4,75,1003,190,191,1,0,1,0,676.249967813492,4.95,681.243621826172,682.671602010727,1.42315316200256,1,4.97,687.677513837814,0,new_learn,688.739341974258,0
220256,4,76,1003,191,189,1,0,-1,0,688.739341974258,2.18,690.971594810486,692.382336854935,1.40743017196655,1,1.05,694.961028814316,0,new_learn,696.006531000137,0
220256,4,77,1003,66,-1000,0,1,-1,0,696.006531000137,2.46,698.510869026184,699.899792909622,1.39568614959717,1,1.39,701.326999902725,0,accrej,702.373289823532,0
220256,4,78,1003,189,191,1,1,-1,0,702.373289823532,6.91,709.327093839645,711.069288015366,1.73723196983337,1,1.47,713.660650014877,0,new_learn,714.69636297226,0
220256,4,79,1003,111,-1000,0,1,-1,0,714.69636297226,2.18,716.927080869675,718.134775876999,1.22123694419861,1,3.79,721.951028823853,0,accrej,723.008085012436,0
220256,4,80,1003,190,189,1,0,0,0,723.008085012436,3.59,726.643770933151,727.576800823212,0.927564859390259,1,2.32,730.166672945023,731.171746015549,new_learn,733.714507818222,0
220256,4,81,1003,191,190,1,1,1,0,733.714507818222,6.27,740.032333850861,741.272174835205,1.23559594154358,1,4.95,746.248370885849,0,new_learn,747.296919822693,0
220256,4,82,1003,47,-1000,0,0,1,0,747.296919822693,4.16,751.514240980148,752.562450885773,1.05904197692871,1,3.3,755.930225849152,0,accrej,756.970933914185,0
220256,4,83,1003,189,190,1,1,1,0,756.970933914185,2.07,759.079558849335,760.164898872375,1.08335304260254,1,1.88,762.746299982071,0,new_learn,763.804935932159,0
220256,4,84,1003,80,-1000,0,0,0,0,763.804935932159,5,768.861009836197,769.831257820129,0.985121965408325,1,3.44,773.311502933502,0,accrej,,
