"id","run_number","trial","block","stim1","stim2","feedback","choice","outcome","times_too_slow","trial_started","iti_ideal_lag","stim_time","choice_time","reaction_time","correct_choice","feedback_isi","feedback_time","every_ten","experiment_date","experiment_build","site","trial_type","trial_started_next","stim_time_next","iti_ideal","too_slow_lead","bad_trial","outcome_fac","iti_actual","trial_completed","was_slow","was_slow_lead","rt_diff","feedback_diff"
217234,1,1,1000,180,182,1,1,1,0,2.62455797195435,1.76,4.50214099884033,5.17912983894348,0.667361974716187,1,1.42,7.84159803390503,0,2021-12-08 15:52:44,"2-Feb-2021","pitt","new_learn",8.92550086975098,11.4076809883118,2.13,0,FALSE,"win",2.56608295440677,NA,"FALSE","FALSE",-0.00962686538696245,1.24246819496155
217234,1,5,1000,182,181,1,0,0,0,35.8433268070221,2.17,38.0714049339294,39.6649568080902,1.57799196243286,0,0.91,42.2873380184174,0,2021-12-08 15:52:44,"2-Feb-2021","pitt","new_learn",43.3604419231415,51.4191768169403,8.01,0,FALSE,"nothing",8.1318387985229,NA,"FALSE","FALSE",-0.0155599117279421,1.7123812103272
217234,1,7,1000,180,181,1,1,0,0,56.7958288192749,3.64,60.5013959407806,62.3216078281403,1.81296706199646,1,1.74,64.9172089099884,0,2021-12-08 15:52:44,"2-Feb-2021","pitt","new_learn",65.9634988307953,69.1647469997406,3.13,0,FALSE,"nothing",3.2475380897522,NA,"FALSE","FALSE",-0.00724482536324444,0.855601081848107
217234,1,12,1000,181,182,1,0,0,0,103.813804864883,2.12,105.979041814804,107.471938848495,1.48875713348389,1,1.79,110.062299013138,0,2021-12-08 15:52:44,"2-Feb-2021","pitt","new_learn",111.118956804276,114.814677000046,3.65,0,FALSE,"nothing",3.752377986908,NA,"FALSE","FALSE",-0.00413990020710409,0.800360164642996
217234,1,15,1000,182,180,1,0,0,0,125.697798967361,1.96,127.70924782753,129.334619998932,1.6211371421814,1,1.68,131.927696943283,0,2021-12-08 15:52:44,"2-Feb-2021","pitt","new_learn",132.986032009125,139.343762874603,6.31,0,FALSE,"nothing",6.41606593131999,NA,"FALSE","FALSE",-0.00423502922059171,0.913076944350991
217234,1,16,1000,180,182,1,1,0,0,132.986032009125,6.31,139.343762874603,140.697031974792,1.34936499595642,1,1.35,143.293622016907,0,2021-12-08 15:52:44,"2-Feb-2021","pitt","new_learn",144.348532915115,146.393420934677,1.99,0,FALSE,"nothing",2.09979891777002,NA,"FALSE","FALSE",-0.00390410423259002,1.246590042115
217234,1,22,1000,181,182,1,0,1,0,190.541953802109,3.78,194.373488903046,195.76372885704,1.38301610946655,1,1.51,198.356878995895,0,2021-12-08 15:52:44,"2-Feb-2021","pitt","new_learn",199.392424821854,203.349679946899,3.91,0,FALSE,"win",3.992800951004,NA,"FALSE","FALSE",-0.00722384452746194,1.08315013885499
217234,1,25,1000,182,180,1,0,0,0,218.872061014175,2.47,221.397193908691,222.568192005157,1.16518092155457,1,1.25,225.171643972397,0,2021-12-08 15:52:44,"2-Feb-2021","pitt","new_learn",226.223338842392,234.945505857468,8.67,0,FALSE,"nothing",8.773861885071,NA,"FALSE","FALSE",-0.0058171749114091,1.35345196724001
217234,1,32,1000,181,182,1,0,1,0,281.766644954681,5.97,287.789216995239,288.945326805115,1.15178203582764,1,0.99,291.538506031036,0,2021-12-08 15:52:44,"2-Feb-2021","pitt","new_learn",292.59284901619,296.320905923843,3.68,0,FALSE,"win",3.78239989280701,NA,"FALSE","FALSE",-0.00432777404835982,1.603179225921
217234,1,40,1000,180,181,1,1,1,0,360.771884918213,3.8,364.612808942795,365.443289995193,0.826345920562744,1,1.21,368.029278039932,369.031699895859,2021-12-08 15:52:44,"2-Feb-2021","pitt","new_learn",371.566779851913,374.412178039551,2.8,0,FALSE,"win",5.38289999961899,NA,"FALSE","FALSE",-0.00413513183525549,1.37598804473902
217234,1,41,1000,181,182,1,0,1,0,371.566779851913,2.8,374.412178039551,375.586954832077,1.16909885406494,1,1.71,378.178634881973,0,2021-12-08 15:52:44,"2-Feb-2021","pitt","new_learn",379.229179859161,381.145273923874,1.87,0,FALSE,"win",1.96663904190103,NA,"FALSE","FALSE",-0.00567793846107767,0.881680049895976
217234,1,45,1000,181,180,1,0,1,0,405.462929964066,2.03,407.543344020844,408.640962839127,1.09401988983154,1,1.22,411.226898908615,0,2021-12-08 15:52:44,"2-Feb-2021","pitt","new_learn",412.269279956818,415.026577949524,2.71,0,FALSE,"win",2.79967904090898,NA,"FALSE","FALSE",-0.00359892845142729,1.36593606948799
217234,1,60,1000,180,181,1,1,1,0,535.601413011551,1.83,537.485500812531,538.187227964401,0.696611166000366,1,2.09,540.77286696434,541.779217004776,2021-12-08 15:52:44,"2-Feb-2021","pitt","new_learn",544.310647010803,547.455062866211,3.1,0,FALSE,"win",5.68219590187107,NA,"FALSE","FALSE",-0.00511598586967943,0.495638999938933
217234,1,74,1000,181,180,1,0,1,0,662.777196884155,2.68,665.510324001312,666.450022935867,0.932503938674927,1,1.28,669.043730020523,0,2021-12-08 15:52:44,"2-Feb-2021","pitt","new_learn",670.097587823868,672.343268871307,2.2,0,FALSE,"win",2.29953885078407,NA,"FALSE","FALSE",-0.00719499588001304,1.31370708465602
217234,1,77,1000,181,180,1,0,1,0,687.382881879807,3.13,690.559221029282,691.327749967575,0.764526844024658,1,0.88,693.925673007965,0,2021-12-08 15:52:44,"2-Feb-2021","pitt","new_learn",694.979723930359,697.726225852966,2.7,0,FALSE,"win",2.80055284500099,NA,"FALSE","FALSE",-0.0040020942683443,1.71792304039002
217234,1,81,1000,180,182,1,1,1,0,726.419852972031,1.98,728.439663887024,730.105939865112,1.65902400016785,1,1.73,732.690047025681,0,2021-12-08 15:52:44,"2-Feb-2021","pitt","new_learn",733.744313955307,736.264201879501,2.47,0,FALSE,"win",2.57415485382001,NA,"FALSE","FALSE",-0.00725197792007415,0.854107160569015
217234,1,84,1000,182,181,1,1,1,0,751.645202875137,5,756.704998016357,757.523783922195,0.814888000488281,1,1.55,760.11123085022,0,2021-12-08 15:52:44,"2-Feb-2021","pitt","new_learn",NA,NA,NA,NA,FALSE,"win",NA,NA,"FALSE",NA,-0.00389790534973167,1.03744692802502
217234,2,10,1001,185,183,1,1,-1,0,82.0369558334351,3.26,85.3482069969177,87.0742108821869,1.71967101097107,0,0.87,89.6480498313904,90.6568348407745,2021-12-08 15:52:44,"2-Feb-2021","pitt","new_learn",93.1911737918854,95.0972719192505,1.86,0,FALSE,"loss",4.44922208786011,NA,"FALSE","FALSE",-0.00633287429813767,1.70383894920349
217234,2,18,1001,183,184,1,1,1,0,152.455811023712,1.75,154.255393981934,155.090006828308,0.832618951797485,1,0.8,157.671314001083,0,2021-12-08 15:52:44,"2-Feb-2021","pitt","new_learn",158.70142698288,160.576811790466,1.83,0,FALSE,"win",1.90549778938299,NA,"FALSE","FALSE",-0.00199389457651511,1.781307172775
217234,2,20,1001,185,183,1,1,-1,0,167.09610581398,2.8,169.9428358078,171.338389873505,1.39002013206482,0,1.34,173.925985813141,174.937042951584,2021-12-08 15:52:44,"2-Feb-2021","pitt","new_learn",177.482311010361,180.434980869293,2.91,0,FALSE,"loss",5.508995056152,NA,"FALSE","FALSE",-0.0055339336401794,1.247595939636
217234,2,22,1001,185,184,1,1,-1,0,187.557014942169,1.78,189.391358852386,190.614691019058,1.21959710121155,1,1.52,193.20779800415,0,2021-12-08 15:52:44,"2-Feb-2021","pitt","new_learn",194.241487026215,198.116354942322,3.82,0,FALSE,"loss",3.90855693817201,NA,"FALSE","FALSE",-0.00373506546045865,1.07310698509198
217234,2,25,1001,184,183,1,0,1,0,210.307431936264,1.94,212.297829866409,213.108510971069,0.808377981185913,1,2.22,215.714100837708,0,2021-12-08 15:52:44,"2-Feb-2021","pitt","new_learn",216.755219936371,218.680038928986,1.87,0,FALSE,"win",1.96593809127799,NA,"FALSE","FALSE",-0.00230312347409278,0.385589866639009
217234,2,30,1001,183,185,1,1,-1,0,247.924776792526,2.32,250.292521953583,251.140089988708,0.841588020324707,1,1.47,253.720345973969,254.722615003586,2021-12-08 15:52:44,"2-Feb-2021","pitt","new_learn",257.245001792908,259.241350889206,1.95,0,FALSE,"loss",4.521004915237,NA,"FALSE","FALSE",-0.00598001480031485,1.11025598526098
217234,2,33,1001,185,183,1,0,-1,0,271.16139793396,4.87,276.08575296402,277.47193479538,1.38028502464294,1,0.82,280.072382926941,0,2021-12-08 15:52:44,"2-Feb-2021","pitt","new_learn",281.129065990448,283.13525891304,1.96,0,FALSE,"loss",2.06287598609902,NA,"FALSE","FALSE",-0.00589680671703707,1.780448131561
217234,2,39,1001,184,185,1,1,-1,0,316.269752979279,2.49,318.817009925842,319.786581993103,0.965909004211426,0,0.88,322.383091926575,0,2021-12-08 15:52:44,"2-Feb-2021","pitt","new_learn",323.428509950638,325.383093833923,1.91,0,FALSE,"loss",2.00000190734801,NA,"FALSE","FALSE",-0.0036630630496004,1.71650993347197
217234,2,48,1001,183,184,1,1,-1,0,402.644328832626,6.04,408.744164943695,409.703323841095,0.957387924194336,1,1.34,412.276929855347,0,2021-12-08 15:52:44,"2-Feb-2021","pitt","new_learn",413.305465936661,415.710543870926,2.35,0,FALSE,"loss",2.433614015579,NA,"FALSE","FALSE",-0.00177097320567998,1.23360601425202
217234,2,49,1001,185,183,1,0,-1,0,413.305465936661,2.35,415.710543870926,416.856247901917,1.14221405982971,1,1.13,419.460333824158,0,2021-12-08 15:52:44,"2-Feb-2021","pitt","new_learn",420.481649875641,423.586637973785,3.06,0,FALSE,"loss",3.126304149627,NA,"FALSE","FALSE",-0.00348997116128857,1.47408592224099
217234,2,53,1001,185,184,1,1,1,0,451.481062889099,3.32,454.849296808243,455.809252977371,0.957046985626221,1,1.88,458.391220808029,0,2021-12-08 15:52:44,"2-Feb-2021","pitt","new_learn",459.447594881058,462.007475852966,2.5,0,FALSE,"win",2.61625504493702,NA,"FALSE","FALSE",-0.00290918350174219,0.70196783065802
217234,2,54,1001,185,183,1,0,1,0,459.447594881058,2.5,462.007475852966,463.172622919083,1.1611909866333,1,1.12,465.773527860641,0,2021-12-08 15:52:44,"2-Feb-2021","pitt","new_learn",466.790157794952,472.339909791946,5.5,0,FALSE,"win",5.56638193130499,NA,"FALSE","FALSE",-0.00395607948365839,1.48090494155804
217234,2,56,1001,184,183,1,0,1,0,478.345136880875,3.63,482.029070854187,483.565370798111,1.53051710128784,1,1.57,486.155627965927,0,2021-12-08 15:52:44,"2-Feb-2021","pitt","new_learn",487.170980930328,489.022145986557,1.81,0,FALSE,"win",1.86651802063,NA,"FALSE","FALSE",-0.00578284263616702,1.020257167816
217234,2,60,1001,184,185,1,0,1,0,513.120131969452,2.17,515.341813802719,516.018103837967,0.669605016708374,1,1.5,518.624486923218,519.629055023193,2021-12-08 15:52:44,"2-Feb-2021","pitt","new_learn",522.179907798767,527.189837932587,4.97,0,FALSE,"win",7.56535100936901,NA,"FALSE","FALSE",-0.00668501853965608,1.10638308525097
217234,2,71,1001,184,185,1,0,-1,0,626.397490978241,6.38,632.829998016357,633.824021816254,0.99089789390564,1,1.17,636.396474838257,0,2021-12-08 15:52:44,"2-Feb-2021","pitt","new_learn",637.433521986008,643.995486021042,6.52,0,FALSE,"loss",6.59901118278503,NA,"FALSE","FALSE",-0.00312590599139606,1.40245302200299
217234,2,72,1001,184,183,1,0,1,0,637.433521986008,6.52,643.995486021042,644.71350479126,0.714975833892822,1,1.35,647.291085958481,0,2021-12-08 15:52:44,"2-Feb-2021","pitt","new_learn",648.328496932983,655.32821393013,6.94,0,FALSE,"win",7.03712797164906,NA,"FALSE","FALSE",-0.00304293632518715,1.22758116722093
217234,2,73,1001,183,184,1,1,1,0,648.328496932983,6.94,655.32821393013,656.240818977356,0.910130977630615,1,1.91,658.844511985779,0,2021-12-08 15:52:44,"2-Feb-2021","pitt","new_learn",659.866006851196,661.94468998909,2.03,0,FALSE,"win",2.10017800331093,NA,"FALSE","FALSE",-0.00247406959533714,0.693693008423111
217234,2,83,1001,183,185,1,1,1,0,738.396049022675,2.27,740.724603891373,741.948662996292,1.22046303749084,1,1.08,744.555670976639,0,2021-12-08 15:52:44,"2-Feb-2021","pitt","new_learn",745.577096939087,750.627482891083,5,0,FALSE,"win",5.07181191444397,NA,"FALSE","FALSE",-0.00359606742813878,1.52700798034698
217234,3,12,1002,188,187,1,1,-1,0,101.588529109955,1.82,103.453523159027,104.889065027237,1.4303138256073,1,1.61,107.470575094223,0,2021-12-08 15:52:44,"2-Feb-2021","pitt","new_learn",108.496325016022,111.269692182541,2.73,0,FALSE,"loss",2.799117088318,NA,"FALSE","FALSE",-0.00522804260269516,0.971510066985999
217234,3,14,1002,187,186,1,0,0,0,116.921467065811,1.86,118.831765174866,120.11256814003,1.27596998214722,1,1.54,122.702371120453,0,2021-12-08 15:52:44,"2-Feb-2021","pitt","new_learn",123.729807138443,126.385687112808,2.6,0,FALSE,"nothing",2.68331599235501,NA,"FALSE","FALSE",-0.00483298301677992,1.04980298042298
217234,3,27,1002,186,188,1,1,0,0,231.551557064056,2.5,234.100447177887,235.767952203751,1.66212391853333,1,1.32,238.349831104279,0,2021-12-08 15:52:44,"2-Feb-2021","pitt","new_learn",239.406045198441,241.382389068604,1.94,0,FALSE,"nothing",2.03255796432501,NA,"FALSE","FALSE",-0.00538110733068686,1.26187890052799
217234,3,34,1002,186,187,1,0,-1,0,296.977301120758,4.29,301.324958086014,302.931641101837,1.60168099403381,0,0.94,305.524474143982,0,2021-12-08 15:52:44,"2-Feb-2021","pitt","new_learn",306.581540107727,309.057478189468,2.43,0,FALSE,"loss",2.533004045486,NA,"FALSE","FALSE",-0.00500202178915643,1.65283304214501
217234,3,41,1002,188,186,1,0,0,0,358.570860147476,5.11,363.737307071686,365.734042167664,1.9942090511322,1,1.26,368.320438146591,0,2021-12-08 15:52:44,"2-Feb-2021","pitt","new_learn",369.375225067139,372.003090143204,2.58,0,FALSE,"nothing",2.682651996613,NA,"FALSE","FALSE",-0.00252604484575381,1.32639597892705
217234,3,48,1002,186,187,1,1,0,0,416.220147132874,3.26,419.533763170242,420.917715072632,1.38244485855103,1,0.85,423.492485046387,0,2021-12-08 15:52:44,"2-Feb-2021","pitt","new_learn",424.555938005447,429.116425037384,4.51,0,FALSE,"nothing",4.62393999099697,NA,"FALSE","FALSE",-0.00150704383895106,1.72476997375497
217234,3,52,1002,188,187,1,1,0,0,460.153263092041,6.33,466.54744720459,468.038938999176,1.48866081237793,1,0.72,470.619688034058,0,2021-12-08 15:52:44,"2-Feb-2021","pitt","new_learn",471.67381310463,478.184996128082,6.46,0,FALSE,"nothing",6.56530809402398,NA,"FALSE","FALSE",-0.0028309822080812,1.86074903488196
217234,3,54,1002,186,187,1,1,1,0,484.064825057983,2.03,486.150991201401,488.102662086487,1.94772100448608,1,0.92,490.678955078125,0,2021-12-08 15:52:44,"2-Feb-2021","pitt","new_learn",498.594058036804,500.444904088974,1.8,1,FALSE,"win",8.765949010849,NA,"FALSE","TRUE",-0.00394988059992274,1.656292991638
217234,3,60,1002,187,188,1,1,0,0,540.651288986206,2.5,543.193544149399,545.650303125381,2.45463395118713,0,2.12,548.226103067398,549.233091115952,2021-12-08 15:52:44,"2-Feb-2021","pitt","new_learn",551.766895055771,554.908313989639,3.11,0,FALSE,"nothing",5.6822109222411,NA,"FALSE","FALSE",-0.0021250247948541,0.455799942016938
217234,3,63,1002,186,187,1,1,1,0,567.465824127197,5.79,573.305957078934,574.302321195602,0.994319915771484,1,1.78,576.8901720047,0,2021-12-08 15:52:44,"2-Feb-2021","pitt","new_learn",577.918282985687,581.373385190964,3.41,0,FALSE,"win",3.48321318626392,NA,"FALSE","FALSE",-0.00204420089653501,0.807850809098113
217234,3,79,1002,187,186,1,0,1,0,713.624509096146,2.56,716.231028079987,717.046164035797,0.813653945922852,1,2.01,719.636701107025,0,2021-12-08 15:52:44,"2-Feb-2021","pitt","new_learn",728.227606058121,730.730576038361,2.45,1,FALSE,"win",10.093874931336,NA,"FALSE","TRUE",-0.00148200988712643,0.580537071228036
217234,3,82,1002,186,188,1,1,0,0,746.795480012894,2.52,749.366371154785,750.799816131592,1.42868399620056,1,1.38,753.399007081985,0,2021-12-08 15:52:44,"2-Feb-2021","pitt","new_learn",754.423536062241,757.232369184494,2.76,0,FALSE,"nothing",2.833362102509,NA,"FALSE","FALSE",-0.00476098060642172,1.219190950393
217234,3,83,1002,188,186,1,0,0,0,754.423536062241,2.76,757.232369184494,758.057360172272,0.819662809371948,1,1.27,760.648651123047,0,2021-12-08 15:52:44,"2-Feb-2021","pitt","new_learn",761.706804037094,766.747792005539,5,0,FALSE,"nothing",5.09914088249207,NA,"FALSE","FALSE",-0.00532817840598931,1.32129095077505
217234,4,1,1003,190,189,1,1,-1,0,2.54603791236877,6.15,8.7453818321228,10.2771439552307,1.53028011322021,0,1.7,12.8613629341125,0,2021-12-08 15:52:44,"2-Feb-2021","pitt","new_learn",13.8977439403534,16.3940279483795,2.46,0,FALSE,"loss",2.532665014267,NA,"FALSE","FALSE",-0.00148200988769132,0.884218978881801
217234,4,6,1003,191,189,1,0,-1,1,54.6860430240631,2.7,57.424840927124,58.901713848114,1.47315406799316,1,0.82,61.4913609027863,0,2021-12-08 15:52:44,"2-Feb-2021","pitt","new_learn",62.5465168952942,68.9907698631287,6.4,0,FALSE,"loss",6.49940896034241,NA,"TRUE","FALSE",-0.00371885299683727,1.7696470546723
217234,4,8,1003,189,191,1,1,1,0,76.1641809940338,2.17,78.3862509727478,80.1129908561707,1.72518706321716,1,0.87,82.6899738311768,0,2021-12-08 15:52:44,"2-Feb-2021","pitt","new_learn",83.7416548728943,86.6015539169312,2.81,0,FALSE,"win",2.91158008575439,NA,"FALSE","FALSE",-0.00155282020573422,1.7069829750061
217234,4,11,1003,191,190,1,0,1,0,105.361529827118,2.32,107.732549905777,109.134917974472,1.39992594718933,0,1.85,111.721485853195,0,2021-12-08 15:52:44,"2-Feb-2021","pitt","new_learn",112.783108949661,117.453941822052,4.62,0,FALSE,"win",4.732455968857,NA,"FALSE","FALSE",-0.00244212150566736,0.736567878723008
217234,4,13,1003,190,191,1,1,1,0,123.192001819611,2.32,125.563495874405,126.672835826874,1.10338306427002,0,1.82,129.26978802681,0,2021-12-08 15:52:44,"2-Feb-2021","pitt","new_learn",130.291451931,132.403445005417,2.06,0,FALSE,"win",2.13365697860701,NA,"FALSE","FALSE",-0.00595688819897999,0.776952199936005
217234,4,17,1003,191,189,1,0,-1,0,152.508874893188,3.23,155.792593002319,157.233085870743,1.43518686294556,1,1.33,159.8345079422,0,2021-12-08 15:52:44,"2-Feb-2021","pitt","new_learn",160.859972953796,162.984783887863,2.07,0,FALSE,"loss",2.150275945663,NA,"FALSE","FALSE",-0.00530600547844196,1.27142207145698
217234,4,19,1003,191,190,1,0,1,0,169.990551948547,1.8,171.840867996216,172.789208889008,0.946418046951294,0,1.56,175.373687028885,0,2021-12-08 15:52:44,"2-Feb-2021","pitt","new_learn",176.430070877075,179.622845888138,3.14,0,FALSE,"win",3.24915885925299,NA,"FALSE","FALSE",-0.0019228458407099,1.024478139877
217234,4,22,1003,189,190,1,1,1,0,198.429201841354,1.77,200.236754894257,201.507817029953,1.26672601699829,1,1.03,204.086328029633,0,2021-12-08 15:52:44,"2-Feb-2021","pitt","new_learn",213.416401863098,216.667941808701,3.21,1,FALSE,"win",11.581613779068,NA,"FALSE","TRUE",-0.00433611869772332,1.54851099967999
217234,4,23,1003,190,189,1,0,-1,1,213.416401863098,3.21,216.667941808701,217.658715963364,0.988671064376831,1,1.82,220.251178979874,0,2021-12-08 15:52:44,"2-Feb-2021","pitt","new_learn",221.284343004227,223.533696889877,2.2,0,FALSE,"loss",2.28251791000301,NA,"TRUE","FALSE",-0.00210309028616962,0.772463016510017
217234,4,24,1003,190,191,1,1,-1,0,221.284343004227,2.2,223.533696889877,224.660555839539,1.12296915054321,0,0.8,227.250247955322,0,2021-12-08 15:52:44,"2-Feb-2021","pitt","new_learn",228.310570955276,231.782725811005,3.43,0,FALSE,"loss",3.532477855683,NA,"FALSE","FALSE",-0.00388979911878384,1.789692115783
217234,4,25,1003,191,190,1,0,-1,0,228.310570955276,3.43,231.782725811005,232.829942941666,1.03998804092407,0,1.6,235.432267904282,0,2021-12-08 15:52:44,"2-Feb-2021","pitt","new_learn",236.45956993103,239.481689929962,2.98,0,FALSE,"loss",3.04942202567997,NA,"FALSE","FALSE",-0.00722908973691228,1.00232496261603
217234,4,28,1003,191,189,1,0,-1,0,250.119846820831,2.68,252.845289945602,253.49113202095,0.641897916793823,1,0.83,256.082451820374,0,2021-12-08 15:52:44,"2-Feb-2021","pitt","new_learn",257.11275100708,259.412767887115,2.24,0,FALSE,"loss",2.33031606674103,NA,"FALSE","FALSE",-0.00394415855419106,1.76131979942397
217234,4,38,1003,189,190,1,1,1,0,338.363261938095,1.89,340.289767980576,341.576455831528,1.28540086746216,1,0.86,344.156654834747,0,2021-12-08 15:52:44,"2-Feb-2021","pitt","new_learn",345.215683937073,347.589673042297,2.33,0,FALSE,"win",2.43301820755005,NA,"FALSE","FALSE",-0.00128698348981793,1.72019900321897
217234,4,44,1003,191,190,1,0,-1,0,398.342669010162,3.97,402.360898971558,403.440009832382,1.07535886764526,0,1.06,406.043292045593,0,2021-12-08 15:52:44,"2-Feb-2021","pitt","new_learn",407.069670915604,415.225473880768,8.11,0,FALSE,"loss",8.18218183517502,NA,"FALSE","FALSE",-0.00375199317869979,1.543282213211
217234,4,55,1003,191,189,1,0,1,0,500.971284866333,2.16,503.179514884949,504.045697927475,0.861665964126587,1,0.82,506.63050699234,0,2021-12-08 15:52:44,"2-Feb-2021","pitt","new_learn",507.691221952438,510.062151908875,2.33,0,FALSE,"win",2.43164491653505,NA,"FALSE","FALSE",-0.00451707839937388,1.76480906486501
217234,4,62,1003,189,191,1,1,1,0,562.61000585556,2.28,564.9423828125,566.102030038834,1.15361499786377,1,0.94,568.708485841751,0,2021-12-08 15:52:44,"2-Feb-2021","pitt","new_learn",569.731099843979,575.858045816422,6.08,0,FALSE,"win",6.14955997467098,NA,"FALSE","FALSE",-0.00603222847018925,1.66645580291697
217234,4,83,1003,189,190,1,1,1,0,767.537819862366,2.03,769.612766027451,770.651049852371,1.0339298248291,1,1.3,773.245589017868,0,2021-12-08 15:52:44,"2-Feb-2021","pitt","new_learn",774.261835813522,779.311691999435,5,0,FALSE,"win",5.06610298156693,NA,"FALSE","FALSE",-0.00435400009087217,1.2945391654971
220256,1,1,1000,180,182,1,0,0,1,10.3749158382416,2.58,13.0062358379364,13.5108649730682,0.491878032684326,0,1.35,16.1226699352264,0,2021-09-13 20:47:55,"2-Feb-2021","pitt","new_learn",17.2007548809052,20.3386600017548,3.09,0,FALSE,"nothing",3.2159900665284,NA,"TRUE","FALSE",-0.0127511024474744,1.2618049621582
220256,1,7,1000,181,182,1,0,0,0,70.0205249786377,2.28,72.3648068904877,73.7197458744049,1.34534311294556,1,0.96,76.3205938339233,0,2021-09-13 20:47:55,"2-Feb-2021","pitt","new_learn",77.3601658344269,81.0036239624023,3.59,0,FALSE,"nothing",3.683030128479,NA,"FALSE","FALSE",-0.00959587097163372,1.64084795951841
220256,1,9,1000,181,180,1,0,1,0,89.5963628292084,1.98,91.6283459663391,93.3346388339996,1.70140886306763,1,0.83,95.9277019500732,0,2021-09-13 20:47:55,"2-Feb-2021","pitt","new_learn",96.9799768924713,98.9941239356995,1.96,0,FALSE,"win",2.06642198562631,NA,"FALSE","FALSE",-0.00488400459287819,1.7630631160736
220256,1,10,1000,181,180,1,1,-1,0,96.9799768924713,1.96,98.9941239356995,100.867158889771,1.86569595336914,0,0.7,103.460347890854,104.473122835159,2021-09-13 20:47:55,"2-Feb-2021","pitt","new_learn",107.032039880753,109.077187776566,2,0,FALSE,"loss",4.61683988571201,NA,"FALSE","FALSE",-0.00733900070235971,1.89318900108299
220256,1,11,1000,181,182,1,1,1,0,107.032039880753,2,109.077187776566,110.639895915985,1.55766415596008,0,1.11,113.242274999619,0,2021-09-13 20:47:55,"2-Feb-2021","pitt","new_learn",114.288121938705,116.724864959717,2.38,0,FALSE,"win",2.482589960098,NA,"FALSE","FALSE",-0.00504398345890733,1.49237908363401
220256,1,14,1000,182,180,1,0,0,0,130.086258888245,2.64,132.772594928741,134.251526832581,1.47498607635498,1,1.71,136.85528588295,0,2021-09-13 20:47:55,"2-Feb-2021","pitt","new_learn",137.899793863297,140.838179826736,2.89,0,FALSE,"nothing",2.982893943786,NA,"FALSE","FALSE",-0.00394582748501238,0.893759050368999
220256,1,21,1000,180,182,1,1,-1,0,195.102715969086,2.67,197.831977844238,199.664194822311,1.82342600822449,1,0.86,202.270874977112,0,2021-09-13 20:47:55,"2-Feb-2021","pitt","new_learn",203.298963785172,205.354345798492,2.01,0,FALSE,"loss",2.08347082138002,NA,"FALSE","FALSE",-0.00879096984851646,1.74668015480097
220256,1,24,1000,180,182,1,1,0,0,218.870531797409,2.94,221.871263980865,223.485313892365,1.6098518371582,1,1.41,226.071761846542,0,2021-09-13 20:47:55,"2-Feb-2021","pitt","new_learn",227.128663778305,229.212215900421,2.03,0,FALSE,"nothing",2.14045405387901,NA,"FALSE","FALSE",-0.00419807434181818,1.17644795417698
220256,1,26,1000,182,180,1,0,0,0,235.594077825546,4.28,239.927461862564,241.626748800278,1.69415807723999,1,1.53,244.205701828003,0,2021-09-13 20:47:55,"2-Feb-2021","pitt","new_learn",245.247058868408,248.276851892471,2.98,0,FALSE,"nothing",3.07115006446801,NA,"FALSE","FALSE",-0.00512886047400252,1.04895302772499
220256,1,30,1000,182,181,1,1,1,0,273.345071792603,8.12,281.523100852966,282.542150974274,1.01135492324829,1,1.83,285.12341094017,286.134652853012,2021-09-13 20:47:55,"2-Feb-2021","pitt","new_learn",288.673681974411,291.172288894653,2.44,0,FALSE,"win",5.04887795448298,NA,"FALSE","FALSE",-0.00769519805970842,0.751259965895997
220256,1,39,1000,181,182,1,0,1,0,364.49627494812,3.2,367.747620820999,368.812858819962,1.06128811836243,1,1.57,371.39169383049,0,2021-09-13 20:47:55,"2-Feb-2021","pitt","new_learn",372.449093818665,374.7124979496,2.22,0,FALSE,"win",2.32080411910999,NA,"FALSE","FALSE",-0.00394988060059753,1.008835010528
220256,1,42,1000,182,181,1,0,-1,0,393.168028831482,3.3,396.510449886322,397.898656845093,1.38185000419617,0,1.69,400.476642847061,0,2021-09-13 20:47:55,"2-Feb-2021","pitt","new_learn",401.531627893448,403.892793893814,2.32,0,FALSE,"loss",2.41615104675299,NA,"FALSE","FALSE",-0.00635695457480923,0.887986001967988
220256,1,67,1000,180,182,1,0,-1,0,657.602444887161,3.71,661.360960006714,662.50470495224,1.13847279548645,0,2.05,665.110520839691,0,2021-09-13 20:47:55,"2-Feb-2021","pitt","new_learn",666.147120952606,668.193806886673,2,0,FALSE,"loss",2.08328604698193,NA,"FALSE","FALSE",-0.00527215003955939,0.555815887451104
220256,1,70,1000,181,182,1,0,1,0,687.545167922974,2.22,689.810154914856,691.872844934464,2.05439400672913,1,1.21,694.46079492569,695.469930887222,2021-09-13 20:47:55,"2-Feb-2021","pitt","new_learn",697.99844789505,700.893583774567,2.85,0,FALSE,"win",5.43278884887695,NA,"FALSE","FALSE",-0.00829601287886872,1.37794999122605
220256,1,74,1000,180,181,1,0,-1,0,722.883945941925,4.29,727.218798875809,729.327251911163,2.10051798820496,0,1.74,731.927130937576,0,2021-09-13 20:47:55,"2-Feb-2021","pitt","new_learn",732.978262901306,736.801208972931,3.77,0,FALSE,"loss",3.87407803535507,NA,"FALSE","FALSE",-0.00793504714908577,0.859879026412955
220256,1,79,1000,181,180,1,0,-1,0,772.16427898407,4.38,776.595968008041,777.707803010941,1.10735177993774,1,1.23,780.295615911484,0,2021-09-13 20:47:55,"2-Feb-2021","pitt","new_learn",781.354591846466,784.511649847031,3.11,0,FALSE,"loss",3.21603393554699,NA,"FALSE","FALSE",-0.00448322296222581,1.35781290054297
220256,1,83,1000,182,181,1,1,1,0,811.570683002472,6.91,818.527356863022,820.099409818649,1.56477808952332,1,1.85,822.693558931351,0,2021-09-13 20:47:55,"2-Feb-2021","pitt","new_learn",823.736784934998,828.776947975159,5,0,FALSE,"win",5.08338904380798,NA,"FALSE","FALSE",-0.00727486610366657,0.744149112702075
220256,2,9,1001,183,184,1,0,-1,0,77.8281471729279,4.18,82.0597500801086,83.4335010051727,1.36800503730774,0,1.86,86.0353600978851,0,2021-09-13 20:47:55,"2-Feb-2021","pitt","new_learn",87.0618810653687,89.085638999939,1.97,0,FALSE,"loss",2.05027890205389,NA,"FALSE","FALSE",-0.0057458877563612,0.741859092712403
220256,2,14,1001,184,183,1,0,0,0,123.599964141846,2.95,126.587186098099,127.956100225449,1.36342310905457,1,1.03,130.553117036819,0,2021-09-13 20:47:55,"2-Feb-2021","pitt","new_learn",131.578047037125,134.938389062881,3.31,0,FALSE,"nothing",3.38527202606198,NA,"FALSE","FALSE",-0.00549101829543974,1.56701681137
220256,2,17,1001,183,185,1,1,1,0,149.410531997681,4.59,154.052287101746,155.456012010574,1.40083503723145,1,1.36,158.035677194595,0,2021-09-13 20:47:55,"2-Feb-2021","pitt","new_learn",166.180641174316,168.235306024551,2,1,FALSE,"win",9.199628829956,NA,"FALSE","TRUE",-0.00288987159654641,1.21966518402098
220256,2,20,1001,184,185,1,0,-1,0,182.251192092896,4.69,187.001844167709,188.792632102966,1.78833293914795,1,1.03,191.395328998566,192.407065153122,2021-09-13 20:47:55,"2-Feb-2021","pitt","new_learn",194.95329618454,197.527731180191,2.52,0,FALSE,"loss",5.13240218162503,NA,"FALSE","FALSE",-0.00245499610903632,1.57269689559999
220256,2,27,1001,184,185,1,1,-1,0,257.529156208038,2.64,260.219183206558,261.296562194824,1.07368493080139,0,1.14,263.885102033615,0,2021-09-13 20:47:55,"2-Feb-2021","pitt","new_learn",272.058221101761,274.168291091919,2.06,1,FALSE,"loss",9.283189058304,NA,"FALSE","TRUE",-0.00369405746460116,1.44853983879102
220256,2,30,1001,185,184,1,0,-1,0,287.113473176956,2.51,289.651612043381,290.873344182968,1.21882796287537,0,1.68,293.452116012573,294.462521076202,2021-09-13 20:47:55,"2-Feb-2021","pitt","new_learn",297.019414186478,298.934943199158,1.87,0,FALSE,"loss",4.48282718658498,NA,"FALSE","FALSE",-0.00290417671163445,0.898771829604982
220256,2,38,1001,183,185,1,1,-1,1,376.379895210266,1.84,378.269060134888,380.293845176697,2.0207200050354,1,2.23,382.870529174805,0,2021-09-13 20:47:55,"2-Feb-2021","pitt","new_learn",391.444933176041,393.919532060623,2.43,1,FALSE,"loss",10.049002885818,NA,"TRUE","TRUE",-0.00406503677362524,0.346683998107949
220256,2,47,1001,184,183,1,1,-1,0,470.421756029129,2.79,473.258572101593,474.846177101135,1.58053803443909,0,0.95,477.43612408638,0,2021-09-13 20:47:55,"2-Feb-2021","pitt","new_learn",478.494790077209,480.840979099274,2.3,0,FALSE,"loss",2.40485501289402,NA,"FALSE","FALSE",-0.00706696510291893,1.63994698524499
220256,2,55,1001,183,184,1,1,1,0,556.607208013535,2.36,559.019361019135,560.347776174545,1.32272100448608,1,0.75,562.946785211563,0,2021-09-13 20:47:55,"2-Feb-2021","pitt","new_learn",563.968605995178,567.036001205444,3.01,0,FALSE,"win",3.089215993881,NA,"FALSE","FALSE",-0.00569415092389081,1.84900903701805
220256,2,58,1001,185,184,1,0,-1,0,581.306571006775,8.03,589.386430025101,590.781718015671,1.38958597183228,0,0.88,593.386184215546,0,2021-09-13 20:47:55,"2-Feb-2021","pitt","new_learn",594.418947219849,596.969209194183,2.5,0,FALSE,"loss",2.58302497863701,NA,"FALSE","FALSE",-0.00570201873767462,1.724466199875
220256,2,61,1001,185,183,1,0,1,0,615.597388029099,4.71,620.356969118118,621.254154205322,0.892040014266968,1,2.23,623.856068134308,0,2021-09-13 20:47:55,"2-Feb-2021","pitt","new_learn",624.895317077637,632.122341156006,7.18,0,FALSE,"win",7.266273021698,NA,"FALSE","FALSE",-0.00514507293712518,0.371913928985919
220256,2,62,1001,184,183,1,0,1,0,624.895317077637,7.18,632.122341156006,635.014873027802,2.88832592964172,1,1.6,637.604466199875,0,2021-09-13 20:47:55,"2-Feb-2021","pitt","new_learn",638.661899089813,642.853800058365,4.15,0,FALSE,"win",4.24933385848999,NA,"FALSE","FALSE",-0.00420594215427528,0.989593172073
220256,2,63,1001,184,185,1,0,1,0,638.661899089813,4.15,642.853800058365,643.681918144226,0.826728105545044,1,1.24,646.269930124283,0,2021-09-13 20:47:55,"2-Feb-2021","pitt","new_learn",647.32749414444,650.619671106339,3.25,0,FALSE,"win",3.34974098205601,NA,"FALSE","FALSE",-0.00138998031593474,1.34801198005698
220256,2,68,1001,185,184,1,0,1,0,694.034078121185,3.45,697.553347110748,699.333908081055,1.77835488319397,0,1.97,701.929455041885,0,2021-09-13 20:47:55,"2-Feb-2021","pitt","new_learn",702.985462188721,704.819704055786,1.78,0,FALSE,"win",1.89024901390098,NA,"FALSE","FALSE",-0.00220608711310866,0.625546960829979
220256,2,75,1001,183,185,1,1,-1,0,775.22776722908,3.08,778.353115081787,779.326356172562,0.971168994903564,1,1.02,781.902798175812,0,2021-09-13 20:47:55,"2-Feb-2021","pitt","new_learn",782.955883026123,784.969372034073,1.97,0,FALSE,"loss",2.06657385826099,NA,"FALSE","FALSE",-0.00207209587142687,1.55644200325003
220256,3,2,1002,186,187,1,1,1,0,11.7215659618378,2.35,14.1125349998474,15.6583340167999,1.54054880142212,1,0.79,18.2463428974152,0,2021-09-13 20:47:55,"2-Feb-2021","pitt","new_learn",19.3049697875977,21.162889957428,1.81,0,FALSE,"win",1.9165470600128,NA,"FALSE","FALSE",-0.00525021553038041,1.7980088806153
220256,3,4,1002,186,188,1,1,1,0,26.8701868057251,3.6,30.5127959251404,31.5724408626556,1.05520296096802,1,1.85,34.1710259914398,0,2021-09-13 20:47:55,"2-Feb-2021","pitt","new_learn",35.225900888443,39.6961998939514,4.41,0,FALSE,"win",4.5251739025116,NA,"FALSE","FALSE",-0.00444197654718193,0.7485851287842
220256,3,9,1002,188,187,1,1,0,0,71.0939018726349,3.94,75.0652918815613,76.1316678524017,1.06520009040833,1,1.77,78.715206861496,0,2021-09-13 20:47:55,"2-Feb-2021","pitt","new_learn",79.7745938301086,85.0474169254303,5.24,0,FALSE,"nothing",5.3322100639343,NA,"FALSE","FALSE",-0.00117588043208139,0.813539009094299
220256,3,15,1002,188,186,1,1,-1,0,129.880479812622,2.08,132.007714986801,133.387221813202,1.37660980224609,0,0.79,135.974349975586,0,2021-09-13 20:47:55,"2-Feb-2021","pitt","new_learn",137.030719995499,140.212771892548,3.13,0,FALSE,"loss",3.23842191696201,NA,"FALSE","FALSE",-0.00289702415489423,1.79712816238401
220256,3,18,1002,187,188,1,1,0,0,155.676702976227,6.12,161.845690011978,163.559823989868,1.70793700218201,0,1.2,166.169848918915,0,2021-09-13 20:47:55,"2-Feb-2021","pitt","new_learn",167.193678855896,169.079294919968,1.84,0,FALSE,"nothing",1.909446001053,NA,"FALSE","FALSE",-0.00619697570797628,1.41002492904701
220256,3,33,1002,187,186,1,0,1,0,328.833177804947,7.74,336.614597797394,337.565235853195,0.944451093673706,1,1.88,340.163689851761,0,2021-09-13 20:47:55,"2-Feb-2021","pitt","new_learn",341.190724849701,343.680255889893,2.45,0,FALSE,"win",2.516566038132,NA,"FALSE","FALSE",-0.00618696212728764,0.718453998565963
220256,3,36,1002,187,186,1,0,1,0,372.383589982986,2.33,374.759172916412,375.855276823044,1.09026908874512,1,1.09,378.429407835007,0,2021-09-13 20:47:55,"2-Feb-2021","pitt","new_learn",379.478318929672,381.362514019012,1.83,0,FALSE,"win",1.933106184005,NA,"FALSE","FALSE",-0.00583481788686124,1.48413101196303
220256,3,37,1002,186,187,1,1,1,0,379.478318929672,1.83,381.362514019012,383.521160840988,2.15406584739685,1,1.19,386.096085786819,0,2021-09-13 20:47:55,"2-Feb-2021","pitt","new_learn",387.1541929245,390.478801012039,3.29,0,FALSE,"win",3.38271522522001,NA,"FALSE","FALSE",-0.00458097457914208,1.38492494583102
220256,3,44,1002,187,188,1,0,1,1,454.214526891708,2.25,456.514880895615,457.371962785721,0.855408906936646,1,1.01,459.948019981384,0,2021-09-13 20:47:55,"2-Feb-2021","pitt","new_learn",460.971980810165,464.563887834549,3.53,0,FALSE,"win",3.61586785316501,NA,"TRUE","FALSE",-0.00167298316932785,1.56605719566301
220256,3,45,1002,186,188,1,1,1,0,460.971980810165,3.53,464.563887834549,466.148151874542,1.58211517333984,1,1.64,468.730437994003,0,2021-09-13 20:47:55,"2-Feb-2021","pitt","new_learn",477.589986801147,480.362482786179,2.73,1,FALSE,"win",10.632044792176,NA,"FALSE","TRUE",-0.00214886665316194,0.942286119461016
220256,3,47,1002,188,187,1,0,0,0,486.901262998581,1.86,488.812336921692,489.908316850662,1.08905005455017,0,1.74,492.495352983475,0,2021-09-13 20:47:55,"2-Feb-2021","pitt","new_learn",493.517181873322,497.562438964844,3.99,0,FALSE,"nothing",4.06708598136896,NA,"FALSE","FALSE",-0.00692987441982584,0.847036132813002
220256,3,49,1002,187,188,1,1,0,0,501.686149835587,4.13,505.862327814102,506.780085802078,0.912518978118896,0,1.08,509.362552881241,0,2021-09-13 20:47:55,"2-Feb-2021","pitt","new_learn",510.419993877411,515.212324857712,4.74,0,FALSE,"nothing",4.849771976471,NA,"FALSE","FALSE",-0.00523900985712134,1.50246707916301
220256,3,55,1002,187,186,1,0,1,0,564.973124980927,3.97,568.983633995056,569.850942850113,0.862414836883545,1,2.17,572.445239782333,0,2021-09-13 20:47:55,"2-Feb-2021","pitt","new_learn",573.467750787735,575.399243831635,1.89,0,FALSE,"win",1.95400404930194,NA,"FALSE","FALSE",-0.00489401817344504,0.424296932220045
220256,3,63,1002,188,187,1,0,0,1,652.073431015015,2.05,654.172144889832,655.034101963043,0.858545064926147,0,1.7,657.621474981308,0,2021-09-13 20:47:55,"2-Feb-2021","pitt","new_learn",658.643523931503,660.712033987045,2.02,0,FALSE,"nothing",2.09055900573696,NA,"TRUE","FALSE",-0.00341200828484078,0.887373018264952
220256,3,75,1002,188,187,1,1,1,0,757.086938858032,2.03,759.162232875824,760.675132989883,1.51150894165039,1,1.45,763.262069940567,0,2021-09-13 20:47:55,"2-Feb-2021","pitt","new_learn",764.303498983383,766.190617799759,1.84,0,FALSE,"win",1.92854785919201,NA,"FALSE","FALSE",-0.00139117240860354,1.136936950684
220256,3,82,1002,187,186,1,0,-1,0,823.054003000259,2.96,826.066111803055,827.60893201828,1.53753113746643,1,1.29,830.199319839478,0,2021-09-13 20:47:55,"2-Feb-2021","pitt","new_learn",838.182703971863,840.09475684166,1.86,1,FALSE,"loss",8.89543700218201,NA,"FALSE","TRUE",-0.00528907775856235,1.300387821198
220256,4,18,1003,190,189,1,1,-1,0,159.895936965942,2.84,162.776008844376,163.789759874344,1.01210117340088,0,1.54,166.376402854919,0,2021-09-13 20:47:55,"2-Feb-2021","pitt","new_learn",167.436560869217,169.759208917618,2.28,0,FALSE,"loss",2.38280606269899,NA,"FALSE","FALSE",-0.00164985656712591,1.046642980575
220256,4,21,1003,189,191,1,1,-1,0,187.980464935303,2.04,190.070057868958,191.21221780777,1.13888502120972,1,1.11,193.79319691658,0,2021-09-13 20:47:55,"2-Feb-2021","pitt","new_learn",194.85018992424,197.959553003311,3.06,0,FALSE,"loss",3.16635608673099,NA,"FALSE","FALSE",-0.00327491760228016,1.47097910880998
220256,4,22,1003,191,190,1,0,1,0,194.85018992424,3.06,197.959553003311,198.984258890152,1.02159285545349,0,1.02,201.575927972794,0,2021-09-13 20:47:55,"2-Feb-2021","pitt","new_learn",202.604417800903,205.642935991287,2.99,0,FALSE,"win",3.067008018493,NA,"FALSE","FALSE",-0.00311303138752916,1.57166908264199
220256,4,23,1003,189,190,1,0,0,0,202.604417800903,2.99,205.642935991287,206.952973842621,1.30796885490417,0,1.58,209.533677816391,0,2021-09-13 20:47:55,"2-Feb-2021","pitt","new_learn",210.589038848877,213.066677808762,2.43,0,FALSE,"nothing",2.532999992371,NA,"FALSE","FALSE",-0.00206899642981773,1.00070397376999
220256,4,26,1003,190,191,1,1,-1,0,225.640049934387,1.76,227.442430973053,228.571056842804,1.1235499382019,0,0.95,231.147727012634,0,2021-09-13 20:47:55,"2-Feb-2021","pitt","new_learn",232.206830978394,234.680464029312,2.42,0,FALSE,"loss",2.532737016678,NA,"FALSE","FALSE",-0.00507593154910491,1.62667016982999
220256,4,27,1003,189,191,1,1,1,0,232.206830978394,2.42,234.680464029312,236.120674848557,1.43266296386719,1,1.03,238.712955951691,0,2021-09-13 20:47:55,"2-Feb-2021","pitt","new_learn",239.765115976334,242.195791006088,2.39,0,FALSE,"win",2.48283505439701,NA,"FALSE","FALSE",-0.0075478553778201,1.56228110313398
220256,4,37,1003,191,190,1,0,1,0,319.702082872391,2.11,321.868733882904,323.386823892593,1.51258611679077,0,1.81,325.967810869217,0,2021-09-13 20:47:55,"2-Feb-2021","pitt","new_learn",326.991644859314,329.742220878601,2.7,0,FALSE,"win",2.77441000938404,NA,"FALSE","FALSE",-0.00550389289822006,0.770986976623988
220256,4,38,1003,189,190,1,1,1,0,326.991644859314,2.7,329.742220878601,330.541679859161,0.79455304145813,1,1.09,333.133484840393,0,2021-09-13 20:47:55,"2-Feb-2021","pitt","new_learn",334.156177997589,337.892203807831,3.69,0,FALSE,"win",3.75871896743797,NA,"FALSE","FALSE",-0.00490593910183168,1.50180498123206
220256,4,44,1003,189,191,1,1,1,0,380.945593833923,2.53,383.526873826981,384.847211837769,1.31521415710449,1,1.29,387.426821947098,0,2021-09-13 20:47:55,"2-Feb-2021","pitt","new_learn",388.487212896347,390.992976903915,2.46,0,FALSE,"win",2.566154956817,NA,"FALSE","FALSE",-0.00512385368353074,1.28961010932898
220256,4,51,1003,190,191,1,1,1,0,446.353817939758,1.92,448.325600862503,449.478081941605,1.14686393737793,0,0.87,452.068537950516,0,2021-09-13 20:47:55,"2-Feb-2021","pitt","new_learn",453.131508827209,455.001489877701,1.82,0,FALSE,"win",1.932951927185,NA,"FALSE","FALSE",-0.00561714172408734,1.72045600891096
220256,4,57,1003,190,191,1,0,1,0,497.034442901611,5.05,502.143049955368,503.515540838242,1.36850500106812,1,1.01,506.1119120121,0,2021-09-13 20:47:55,"2-Feb-2021","pitt","new_learn",507.172385931015,509.911054849625,2.71,0,FALSE,"win",2.79914283752498,NA,"FALSE","FALSE",-0.00398588180587001,1.58637117385803
220256,4,60,1003,190,189,1,0,-1,0,527.282369852066,2.29,529.609508991241,531.452193975449,1.84088897705078,1,0.91,534.02669095993,535.037015914917,2021-09-13 20:47:55,"2-Feb-2021","pitt","new_learn",537.585280895233,539.659646987915,2.03,0,FALSE,"loss",4.63295602798507,NA,"FALSE","FALSE",-0.00179600715716921,1.66449698448105
220256,4,66,1003,189,191,1,1,-1,0,584.089945793152,2.02,586.160178899765,588.232959985733,2.06762409210205,1,2.06,590.817801952362,0,2021-09-13 20:47:55,"2-Feb-2021","pitt","new_learn",591.867770910263,594.317164897919,2.4,0,FALSE,"loss",2.4993629455571,NA,"FALSE","FALSE",-0.00515699386596769,0.524841966628969
220256,4,68,1003,191,190,1,1,-1,0,601.236637830734,2.06,603.343232870102,605.583993911743,2.23483800888062,1,0.87,608.193207025528,0,2021-09-13 20:47:55,"2-Feb-2021","pitt","new_learn",609.218954801559,612.593333005905,3.31,0,FALSE,"loss",3.40012598037708,NA,"FALSE","FALSE",-0.00592303276038786,1.7392131137849
220256,4,76,1003,191,189,1,0,-1,0,688.739341974258,2.18,690.971594810486,692.382336854935,1.40743017196655,1,1.05,694.961028814316,0,2021-09-13 20:47:55,"2-Feb-2021","pitt","new_learn",696.006531000137,698.510869026184,2.46,0,FALSE,"loss",2.54984021186795,NA,"FALSE","FALSE",-0.00331187248252984,1.52869195938104
220256,4,78,1003,189,191,1,1,-1,0,702.373289823532,6.91,709.327093839645,711.069288015366,1.73723196983337,1,1.47,713.660650014877,0,2021-09-13 20:47:55,"2-Feb-2021","pitt","new_learn",714.69636297226,716.927080869675,2.18,0,FALSE,"loss",2.26643085479805,NA,"FALSE","FALSE",-0.00496220588764062,1.1213619995109
220256,4,83,1003,189,190,1,1,1,0,756.970933914185,2.07,759.079558849335,760.164898872375,1.08335304260254,1,1.88,762.746299982071,0,2021-09-13 20:47:55,"2-Feb-2021","pitt","new_learn",763.804935932159,768.861009836197,5,0,FALSE,"win",5.11470985412598,NA,"FALSE","FALSE",-0.00198698043754941,0.701401109696008
221504,1,1,1000,182,181,1,1,0,1,10.4029710292816,2.58,13.0395398139954,13.9381859302521,0.886306047439575,1,1.35,16.5557398796082,0,2021-08-06 12:50:45,"2-Feb-2021","pitt","new_learn",17.6387548446655,20.7884228229523,3.09,0,FALSE,"nothing",3.2326829433441,NA,"TRUE","FALSE",-0.0123400688171247,1.2675539493561
221504,1,7,1000,180,181,1,1,0,0,68.7025120258331,2.28,71.0354549884796,71.8863339424133,0.845464944839478,1,0.96,74.5020289421082,0,2021-08-06 12:50:45,"2-Feb-2021","pitt","new_learn",75.5458469390869,79.1976518630981,3.59,0,FALSE,"nothing",3.69562292098991,NA,"FALSE","FALSE",-0.00541400909422363,1.6556949996949
221504,1,9,1000,181,182,1,0,1,0,85.9995489120483,1.98,88.0345838069916,88.8447608947754,0.807310104370117,1,0.83,91.4628708362579,0,2021-08-06 12:50:45,"2-Feb-2021","pitt","new_learn",92.5191638469696,94.5290968418121,1.96,0,FALSE,"win",2.0662260055542,NA,"FALSE","FALSE",-0.0028669834136823,1.7881099414825
221504,1,10,1000,180,182,1,0,-1,0,92.5191638469696,1.96,94.5290968418121,95.4402289390564,0.906804084777832,0,0.7,98.0287117958069,99.0386438369751,2021-08-06 12:50:45,"2-Feb-2021","pitt","new_learn",101.583161830902,103.6335709095,2,0,FALSE,"loss",4.6048591136931,NA,"FALSE","FALSE",-0.00432801246645909,1.8884828567505
221504,1,11,1000,182,181,1,1,1,0,101.583161830902,2,103.6335709095,104.217975854874,0.580060005187988,1,1.11,106.816847801208,0,2021-08-06 12:50:45,"2-Feb-2021","pitt","new_learn",107.871331930161,110.299599885941,2.38,0,FALSE,"win",2.48275208473301,NA,"FALSE","FALSE",-0.00434494018601617,1.488871946334
221504,1,14,1000,181,180,1,0,0,0,123.0186419487,2.64,125.708508014679,126.631055831909,0.918327808380127,1,1.71,129.231778860092,0,2021-08-06 12:50:45,"2-Feb-2021","pitt","new_learn",130.264043807983,133.207232952118,2.89,0,FALSE,"nothing",2.97545409202601,NA,"FALSE","FALSE",-0.00422000884987028,0.890723028183004
221504,1,21,1000,180,181,1,1,1,0,179.046159029007,2.67,181.767613887787,182.566794872284,0.795248031616211,1,0.86,185.144872903824,0,2021-08-06 12:50:45,"2-Feb-2021","pitt","new_learn",186.183156967163,188.25038599968,2.01,0,FALSE,"win",2.105513095856,NA,"FALSE","FALSE",-0.003932952880774,1.71807803153999
221504,1,24,1000,182,181,1,1,-1,0,202.616207838058,2.94,205.610257863998,206.217859983444,0.605563163757324,1,1.41,208.797677993774,0,2021-08-06 12:50:45,"2-Feb-2021","pitt","new_learn",209.855939865112,211.930717945099,2.03,0,FALSE,"loss",2.133039951325,NA,"FALSE","FALSE",-0.00203895568867574,1.16981801033
221504,1,26,1000,181,180,1,0,1,0,218.167069911957,4.28,222.4959628582,223.589926958084,1.09055399894714,1,1.53,226.179066896439,0,2021-08-06 12:50:45,"2-Feb-2021","pitt","new_learn",227.216516971588,230.245018959045,2.98,0,FALSE,"win",3.06595206260602,NA,"FALSE","FALSE",-0.00341010093686478,1.059139938355
221504,1,30,1000,182,180,1,0,0,0,252.643227815628,8.12,260.824095010757,261.757032871246,0.929754018783569,1,1.83,264.340442895889,265.351524829865,2021-08-06 12:50:45,"2-Feb-2021","pitt","new_learn",267.88312292099,270.356197834015,2.44,0,FALSE,"nothing",5.01575493812601,NA,"FALSE","FALSE",-0.00318384170543629,0.753410024643017
221504,1,39,1000,181,182,1,0,0,0,337.50819683075,3.2,340.752077817917,341.670017957687,0.913492202758789,1,1.57,344.252039909363,0,2021-08-06 12:50:45,"2-Feb-2021","pitt","new_learn",345.297034978867,347.579941987991,2.22,0,FALSE,"nothing",2.32790207862797,NA,"FALSE","FALSE",-0.00444793701120727,1.01202195167605
221504,1,42,1000,181,180,1,0,-1,0,365.385715007782,3.3,368.766806840897,369.678996801376,0.90972900390625,1,1.69,372.259698867798,0,2021-08-06 12:50:45,"2-Feb-2021","pitt","new_learn",373.296711921692,375.666627883911,2.32,0,FALSE,"loss",2.406929016113,NA,"FALSE","FALSE",-0.00246095657274736,0.890702066422023
221504,1,67,1000,181,180,1,0,-1,0,589.371721029282,3.71,593.130361795425,593.75986289978,0.626289129257202,1,2.05,596.351478815079,0,2021-08-06 12:50:45,"2-Feb-2021","pitt","new_learn",597.393687963486,599.435493946075,2,0,FALSE,"loss",2.08401513099602,NA,"FALSE","FALSE",-0.00321197509788373,0.541615915298962
221504,1,70,1000,181,182,1,0,1,0,617.093201875687,2.22,619.35818195343,620.702260971069,1.34105086326599,1,1.21,623.28591299057,624.293849945068,2021-08-06 12:50:45,"2-Feb-2021","pitt","new_learn",626.848274946213,629.744184970856,2.85,0,FALSE,"win",5.4582719802861,NA,"FALSE","FALSE",-0.00302815437305637,1.37365201950092
221504,1,74,1000,182,180,1,0,1,0,649.896149873734,4.29,654.23942399025,655.086141824722,0.844633817672729,1,1.74,657.690307855606,0,2021-08-06 12:50:45,"2-Feb-2021","pitt","new_learn",658.734819889069,662.557101011276,3.77,0,FALSE,"win",3.86679315567005,NA,"FALSE","FALSE",-0.00208401679924508,0.864166030884007
221504,1,79,1000,181,180,1,0,1,0,695.058086872101,4.38,699.484481811523,700.226207971573,0.735869169235229,1,1.23,702.817148923874,0,2021-08-06 12:50:45,"2-Feb-2021","pitt","new_learn",703.873946905136,707.032725811005,3.11,0,FALSE,"win",3.21557688713096,NA,"FALSE","FALSE",-0.00585699081477786,1.36094095230101
221504,1,83,1000,180,182,1,1,1,0,730.133832931519,6.91,737.09424495697,737.824585914612,0.726079940795898,1,1.85,740.410794019699,0,2021-08-06 12:50:45,"2-Feb-2021","pitt","new_learn",741.466289997101,746.509790897369,5,0,FALSE,"win",5.09899687767006,NA,"FALSE","FALSE",-0.00426101684615832,0.736208105086916
221504,2,9,1001,183,185,1,1,-1,0,72.140105009079,4.18,76.3754758834839,77.1111209392548,0.728512048721313,1,1.86,79.707927942276,0,2021-08-06 12:50:45,"2-Feb-2021","pitt","new_learn",80.7301149368286,82.7412128448486,1.97,0,FALSE,"loss",2.0332849025726,NA,"FALSE","FALSE",-0.00713300704958941,0.736807003021198
221504,2,14,1001,185,183,1,0,1,0,114.963899850845,2.95,117.964176893234,119.592452049255,1.62332701683044,1,1.03,122.18003487587,0,2021-08-06 12:50:45,"2-Feb-2021","pitt","new_learn",123.213870048523,126.578948020935,3.31,0,FALSE,"win",3.398913145065,NA,"FALSE","FALSE",-0.00494813919056458,1.557582826615
221504,2,17,1001,184,185,1,0,0,0,138.51455283165,4.59,143.158192873001,143.757879018784,0.595749139785767,1,1.36,146.340814828873,0,2021-08-06 12:50:45,"2-Feb-2021","pitt","new_learn",147.368180990219,149.407212018967,2,0,FALSE,"nothing",2.06639719009399,NA,"FALSE","FALSE",-0.00393700599721525,1.22293581008898
221504,2,20,1001,183,185,1,1,1,0,162.17244386673,4.69,166.903559923172,167.704795837402,0.800141096115112,1,1.03,170.286327838898,171.294405937195,2021-08-06 12:50:45,"2-Feb-2021","pitt","new_learn",173.834519863129,176.401943922043,2.52,0,FALSE,"win",5.115616083145,NA,"FALSE","FALSE",-0.00109481811489365,1.55153200149599
221504,2,27,1001,184,185,1,0,0,0,225.280173063278,2.64,227.977881908417,229.421231985092,1.4396641254425,1,1.14,232.014456987381,0,2021-08-06 12:50:45,"2-Feb-2021","pitt","new_learn",233.069413900375,235.180914878845,2.06,0,FALSE,"nothing",2.16645789146398,NA,"FALSE","FALSE",-0.00368595123248872,1.45322500228903
221504,2,30,1001,183,185,1,1,-1,0,247.250736951828,2.51,249.808042049408,250.446853876114,0.634428977966309,1,1.68,253.029862880707,254.03689289093,2021-08-06 12:50:45,"2-Feb-2021","pitt","new_learn",256.588757991791,258.496140003204,1.87,0,FALSE,"loss",4.46627712249702,NA,"FALSE","FALSE",-0.00438284873970884,0.903009004592974
221504,2,38,1001,183,184,1,1,1,0,316.087103843689,1.84,317.978071928024,318.545590877533,0.563122034072876,1,2.23,321.151726007462,0,2021-08-06 12:50:45,"2-Feb-2021","pitt","new_learn",322.192844867706,324.6779088974,2.43,0,FALSE,"win",2.52618288993801,NA,"FALSE","FALSE",-0.00439691543613208,0.376135129928969
221504,2,47,1001,184,185,1,0,1,0,387.287488937378,2.79,390.130342006683,390.674058914185,0.539921045303345,1,0.95,393.263272047043,0,2021-08-06 12:50:45,"2-Feb-2021","pitt","new_learn",394.312567949295,396.663249969482,2.3,0,FALSE,"win",2.39997792243901,NA,"FALSE","FALSE",-0.00379586219867156,1.639213132858
221504,2,55,1001,185,183,1,0,-1,0,460.28925204277,2.36,462.695652008057,463.323679924011,0.622319936752319,1,0.75,465.912451982498,0,2021-08-06 12:50:45,"2-Feb-2021","pitt","new_learn",466.963119029999,470.012073040009,3.01,0,FALSE,"loss",3.099621057511,NA,"FALSE","FALSE",-0.00570797920170241,1.838772058487
221504,2,58,1001,184,185,1,0,1,0,483.727072000504,8.03,491.812693834305,492.407744884491,0.588581085205078,1,0.88,495.008276939392,0,2021-08-06 12:50:45,"2-Feb-2021","pitt","new_learn",496.030361890793,498.579244852066,2.5,0,FALSE,"win",2.57096791267401,NA,"FALSE","FALSE",-0.00646996498096553,1.72053205490096
221504,2,61,1001,184,185,1,0,1,0,516.557176828384,4.71,521.326033830643,521.913898944855,0.582433223724365,1,2.23,524.497074842453,0,2021-08-06 12:50:45,"2-Feb-2021","pitt","new_learn",525.535410881042,532.773300886154,7.18,0,FALSE,"win",7.27622604370095,NA,"FALSE","FALSE",-0.00543189048755743,0.353175897598021
221504,2,62,1001,185,184,1,1,1,0,525.535410881042,7.18,532.773300886154,533.338238954544,0.560083150863647,1,1.6,535.92335486412,0,2021-08-06 12:50:45,"2-Feb-2021","pitt","new_learn",536.96631193161,541.163910865784,4.15,0,FALSE,"win",4.240556001664,NA,"FALSE","FALSE",-0.00485491752635925,0.985115909576052
221504,2,63,1001,183,184,1,1,1,0,536.96631193161,4.15,541.163910865784,541.610743999481,0.442602157592773,1,1.24,544.189656972885,0,2021-08-06 12:50:45,"2-Feb-2021","pitt","new_learn",545.245091915131,548.555695056915,3.25,0,FALSE,"win",3.36603808403004,NA,"FALSE","FALSE",-0.00423097610416834,1.33891297340404
221504,2,68,1001,185,183,1,0,1,0,580.831182956696,3.45,584.331379890442,585.011057853699,0.677750110626221,1,1.97,587.598665952682,0,2021-08-06 12:50:45,"2-Feb-2021","pitt","new_learn",588.653465032578,590.487378835678,1.78,0,FALSE,"win",1.88871288299595,NA,"FALSE","FALSE",-0.00192785263072859,0.617608098983055
221504,2,75,1001,183,185,1,1,1,0,638.580950021744,3.08,641.70735502243,642.497568845749,0.787393808364868,1,1.02,645.071827888489,0,2021-08-06 12:50:45,"2-Feb-2021","pitt","new_learn",646.129032850266,648.152060985565,1.97,0,FALSE,"win",2.08023309707596,NA,"FALSE","FALSE",-0.00282001495418183,1.55425904274
221504,3,2,1002,188,187,1,0,0,0,11.4718542098999,2.35,13.8770501613617,14.7081620693207,0.826230049133301,0,0.79,17.292916059494,0,2021-08-06 12:50:45,"2-Feb-2021","pitt","new_learn",18.3348820209503,20.1924901008606,1.81,0,FALSE,"nothing",1.8995740413666,NA,"FALSE","FALSE",-0.00488185882569936,1.7947539901733
221504,3,4,1002,187,186,1,1,-1,0,25.1018340587616,3.6,28.75026512146,29.4952070713043,0.742516994476318,0,1.85,32.0896241664886,0,2021-08-06 12:50:45,"2-Feb-2021","pitt","new_learn",33.1109051704407,37.5647192001343,4.41,0,FALSE,"loss",4.4750950336457,NA,"FALSE","FALSE",-0.00242495536798193,0.744417095184296
221504,3,9,1002,186,187,1,1,1,0,64.6731240749359,3.94,68.6577360630035,69.5112080574036,0.850808143615723,1,1.77,72.1164600849152,0,2021-08-06 12:50:45,"2-Feb-2021","pitt","new_learn",73.1368041038513,78.4326910972595,5.24,0,FALSE,"win",5.31623101234429,NA,"FALSE","FALSE",-0.00266385078438669,0.835252027511601
221504,3,15,1002,188,187,1,0,0,0,121.731116056442,2.08,123.86344909668,124.492341995239,0.625976085662842,0,0.79,127.06311917305,0,2021-08-06 12:50:45,"2-Feb-2021","pitt","new_learn",128.117068052292,131.295745134354,3.13,0,FALSE,"nothing",3.232625961304,NA,"FALSE","FALSE",-0.00291681289615986,1.78077717781099
221504,3,18,1002,187,188,1,1,0,0,144.897699117661,6.12,151.058700084686,151.631060123444,0.568938970565796,0,1.2,154.208534002304,0,2021-08-06 12:50:45,"2-Feb-2021","pitt","new_learn",155.251205205917,157.141315221786,1.84,0,FALSE,"nothing",1.932781219482,NA,"FALSE","FALSE",-0.00342106819221033,1.37747387886
221504,3,33,1002,186,187,1,1,1,0,288.592013120651,7.74,296.379033088684,297.694185018539,1.30998301506042,1,1.88,300.279205083847,0,2021-08-06 12:50:45,"2-Feb-2021","pitt","new_learn",301.338865041733,303.845521211624,2.45,0,FALSE,"win",2.56631612777699,NA,"FALSE","FALSE",-0.00516891479452886,0.70502006530802
221504,3,36,1002,187,186,1,0,-1,0,322.817687988281,2.33,325.193994998932,327.073105096817,1.87393808364868,1,1.09,329.660845041275,0,2021-08-06 12:50:45,"2-Feb-2021","pitt","new_learn",330.695037126541,332.577172040939,1.83,0,FALSE,"loss",1.91632699966397,NA,"FALSE","FALSE",-0.00517201423633806,1.49773994445803
221504,3,37,1002,188,186,1,0,0,0,330.695037126541,1.83,332.577172040939,333.635879993439,1.05428194999695,1,1.19,336.232624053955,0,2021-08-06 12:50:45,"2-Feb-2021","pitt","new_learn",337.254832029343,340.593508005142,3.29,0,FALSE,"nothing",3.36088395118696,NA,"FALSE","FALSE",-0.00442600250306491,1.40674406051602
221504,3,44,1002,186,188,1,1,1,0,388.051656007767,2.25,390.346507072449,391.08340215683,0.735351085662842,1,1.01,393.663153171539,0,2021-08-06 12:50:45,"2-Feb-2021","pitt","new_learn",394.719732999802,398.293884038925,3.53,0,FALSE,"win",3.63073086738598,NA,"FALSE","FALSE",-0.00154399871814781,1.56975101470903
221504,3,45,1002,188,187,1,0,1,0,394.719732999802,3.53,398.293884038925,398.992128133774,0.695014953613281,0,1.64,401.580295085907,0,2021-08-06 12:50:45,"2-Feb-2021","pitt","new_learn",402.619742155075,405.395924091339,2.73,0,FALSE,"win",2.81562900543202,NA,"FALSE","FALSE",-0.00322914123569285,0.948166952133022
221504,3,47,1002,187,188,1,1,0,0,410.918589115143,1.86,412.811951160431,413.518940210342,0.701751947402954,0,1.74,416.095072031021,0,2021-08-06 12:50:45,"2-Feb-2021","pitt","new_learn",417.119099140167,421.145502090454,3.99,0,FALSE,"nothing",4.05043005943298,NA,"FALSE","FALSE",-0.00523710250803344,0.836131820678986
221504,3,49,1002,188,187,1,0,0,0,425.000527143478,4.13,429.178055047989,429.79504108429,0.612214088439941,0,1.08,432.378617048264,0,2021-08-06 12:50:45,"2-Feb-2021","pitt","new_learn",433.427088022232,438.211536169052,4.74,0,FALSE,"nothing",4.83291912078801,NA,"FALSE","FALSE",-0.00477194786105928,1.50357596397401
221504,3,55,1002,186,188,1,1,1,0,479.291938066483,3.97,483.312240123749,484.246350049973,0.930629014968872,1,2.17,486.845739126205,0,2021-08-06 12:50:45,"2-Feb-2021","pitt","new_learn",487.868440151215,489.795723199844,1.89,0,FALSE,"win",1.94998407363903,NA,"FALSE","FALSE",-0.0034809112551103,0.429389076231985
221504,3,63,1002,188,186,1,0,0,0,558.608777999878,2.05,560.703775167465,561.521637201309,0.813037872314453,1,1.7,564.112888097763,0,2021-08-06 12:50:45,"2-Feb-2021","pitt","new_learn",565.139738082886,567.203387022018,2.02,0,FALSE,"nothing",2.09049892425503,NA,"FALSE","FALSE",-0.00482416152954113,0.891250896453926
221504,3,75,1002,187,188,1,1,0,0,649.736128091812,2.03,651.814249992371,652.738891124725,0.923504114151001,0,1.45,655.314071178436,0,2021-08-06 12:50:45,"2-Feb-2021","pitt","new_learn",656.361438989639,658.262377023697,1.84,0,FALSE,"nothing",1.94830584526096,NA,"FALSE","FALSE",-0.00113701820305323,1.12518005371101
221504,3,82,1002,188,187,1,0,0,0,713.780935049057,2.96,716.794824123383,717.704511165619,0.904978036880493,0,1.29,720.277994155884,0,2021-08-06 12:50:45,"2-Feb-2021","pitt","new_learn",721.305395126343,723.194447994232,1.86,0,FALSE,"nothing",1.91645383834793,NA,"FALSE","FALSE",-0.00470900535549401,1.28348299026504
221504,4,18,1003,191,190,1,1,1,0,151.318982124329,2.84,154.207849025726,154.889529943466,0.676316976547241,1,1.54,157.481398105621,0,2021-08-06 12:50:45,"2-Feb-2021","pitt","new_learn",158.54230093956,160.874347925186,2.28,0,FALSE,"win",2.39294981956499,NA,"FALSE","FALSE",-0.00536394119274086,1.05186816215502
221504,4,21,1003,191,189,1,1,-1,0,177.951467990875,2.04,180.039093017578,180.8605260849,0.81505298614502,0,1.11,183.455493927002,0,2021-08-06 12:50:45,"2-Feb-2021","pitt","new_learn",184.514624118805,187.630341053009,3.06,0,FALSE,"loss",3.174847126007,NA,"FALSE","FALSE",-0.00638008117695632,1.48496784210201
221504,4,22,1003,190,191,1,0,1,0,184.514624118805,3.06,187.630341053009,188.524071931839,0.889761924743652,1,1.02,191.104603052139,0,2021-08-06 12:50:45,"2-Feb-2021","pitt","new_learn",192.145622968674,195.187259912491,2.99,0,FALSE,"win",3.08265686035199,NA,"FALSE","FALSE",-0.00396895408633247,1.5605311203
221504,4,23,1003,190,189,1,0,-1,0,192.145622968674,2.99,195.187259912491,196.317224979401,1.12788009643555,1,1.58,198.903995037079,0,2021-08-06 12:50:45,"2-Feb-2021","pitt","new_learn",199.954138994217,202.436787128448,2.43,0,FALSE,"loss",2.532792091369,NA,"FALSE","FALSE",-0.00208497047446743,1.00677005767798
221504,4,26,1003,189,191,1,0,-1,0,214.784063100815,1.76,216.585227012634,217.292409896851,0.705615997314453,0,0.95,219.884929895401,0,2021-08-06 12:50:45,"2-Feb-2021","pitt","new_learn",220.919109106064,223.385083913803,2.42,0,FALSE,"loss",2.50015401840199,NA,"FALSE","FALSE",-0.00156688690256612,1.64251999855
221504,4,27,1003,190,189,1,0,1,0,220.919109106064,2.42,223.385083913803,224.085678100586,0.696053981781006,1,1.03,226.667901039124,0,2021-08-06 12:50:45,"2-Feb-2021","pitt","new_learn",227.726175069809,230.167278051376,2.39,0,FALSE,"win",2.49937701225201,NA,"FALSE","FALSE",-0.00454020500200147,1.55222293853799
221504,4,37,1003,190,191,1,0,1,0,300.405657052994,2.11,302.560343027115,303.270045042038,0.705570936203003,1,1.81,305.859599113464,0,2021-08-06 12:50:45,"2-Feb-2021","pitt","new_learn",306.880273103714,309.626451969147,2.7,0,FALSE,"win",2.766852855683,NA,"FALSE","FALSE",-0.00413107872003582,0.779554071425991
221504,4,38,1003,191,189,1,1,-1,0,306.880273103714,2.7,309.626451969147,310.427063941956,0.794649124145508,0,1.09,313.009814977646,0,2021-08-06 12:50:45,"2-Feb-2021","pitt","new_learn",314.057192087173,317.809295892715,3.69,0,FALSE,"loss",3.79948091506901,NA,"FALSE","FALSE",-0.00596284866350039,1.49275103568999
221504,4,44,1003,190,189,1,0,1,0,357.785581111908,2.53,360.359956026077,361.237409114838,0.875499963760376,1,1.29,363.824781894684,0,2021-08-06 12:50:45,"2-Feb-2021","pitt","new_learn",364.882719993591,367.391346931458,2.46,0,FALSE,"win",2.56656503677397,NA,"FALSE","FALSE",-0.00195312500062528,1.297372779846
221504,4,51,1003,189,191,1,1,-1,0,419.41522693634,1.92,421.389594078064,422.362339019775,0.971261024475098,1,0.87,424.94843006134,0,2021-08-06 12:50:45,"2-Feb-2021","pitt","new_learn",426.00402712822,427.881448030472,1.82,0,FALSE,"loss",1.93301796913198,NA,"FALSE","FALSE",-0.00148391723587304,1.71609104156499
221504,4,57,1003,189,190,1,1,1,0,466.102319002151,5.05,471.1935338974,472.008213043213,0.811868190765381,1,1.01,474.593210935593,0,2021-08-06 12:50:45,"2-Feb-2021","pitt","new_learn",475.61430311203,478.370848894119,2.71,0,FALSE,"win",2.77763795852599,NA,"FALSE","FALSE",-0.00281095504760731,1.57499789238
221504,4,60,1003,189,191,1,1,-1,0,494.468415975571,2.29,496.808589935303,497.417666912079,0.60355806350708,1,0.91,500.007350921631,501.009449005127,2021-08-06 12:50:45,"2-Feb-2021","pitt","new_learn",503.546668052673,505.619682073593,2.03,0,FALSE,"loss",4.61233115196205,NA,"FALSE","FALSE",-0.00551891326892939,1.67968400955192
221504,4,66,1003,190,189,1,0,1,0,547.720640897751,2.02,549.783139944077,550.40610909462,0.617947101593018,1,2.06,552.982261896133,0,2021-08-06 12:50:45,"2-Feb-2021","pitt","new_learn",554.010709047318,556.44832611084,2.4,0,FALSE,"win",2.46606421470699,NA,"FALSE","FALSE",-0.00502204894996749,0.516152801513044
221504,4,68,1003,189,191,1,1,-1,0,563.065294027328,2.06,565.16398191452,565.64280295372,0.474781036376953,1,0.87,568.230732917786,0,2021-08-06 12:50:45,"2-Feb-2021","pitt","new_learn",569.272094964981,572.629967927933,3.31,0,FALSE,"loss",3.39923501014698,NA,"FALSE","FALSE",-0.00404000282298977,1.717929964066
221504,4,76,1003,190,189,1,0,1,0,644.204180955887,2.18,646.423557043076,647.114176034927,0.686444997787476,1,1.05,649.700767993927,0,2021-08-06 12:50:45,"2-Feb-2021","pitt","new_learn",650.757757902145,653.273076057434,2.46,0,FALSE,"win",2.57230806350697,NA,"FALSE","FALSE",-0.0041739940635348,1.53659195900002
221504,4,78,1003,189,190,1,1,-1,0,656.601751089096,6.91,663.565166950226,664.156960010529,0.586639165878296,1,1.47,666.738861083984,0,2021-08-06 12:50:45,"2-Feb-2021","pitt","new_learn",667.797553062439,670.021466970444,2.18,0,FALSE,"loss",2.28260588645992,NA,"FALSE","FALSE",-0.00515389442477943,1.11190107345499
221504,4,83,1003,190,191,1,0,1,0,709.081111907959,2.07,711.191455125809,711.890249013901,0.695361852645874,1,1.88,714.474572896957,0,2021-08-06 12:50:45,"2-Feb-2021","pitt","new_learn",715.533874988556,720.600713968277,5,0,FALSE,"win",5.12614107131992,NA,"FALSE","FALSE",-0.00343203544616699,0.704323883056077
221518,1,2,1002,186,188,1,1,1,0,10.9570670127869,2.35,13.3661949634552,14.4188408851624,1.04251384735107,1,0.79,16.9995799064636,0,2021-06-15 21:56:24,"2-Feb-2021","pitt","new_learn",18.0871579647064,20.1715738773346,1.81,0,FALSE,"win",2.171993970871,NA,"FALSE","FALSE",-0.0101320743561295,1.7907390213012
221518,1,4,1002,188,187,1,1,1,0,25.3746998310089,3.6,29.0319859981537,31.2413868904114,2.20286393165588,1,1.85,33.8484258651733,0,2021-06-15 21:56:24,"2-Feb-2021","pitt","new_learn",34.8965659141541,39.3691937923431,4.41,0,FALSE,"win",4.5207679271698,NA,"FALSE","FALSE",-0.00653696060181774,0.757038974761898
221518,1,9,1002,188,186,1,1,0,1,78.5063099861145,3.94,82.496878862381,82.7408509254456,0.236736059188843,0,1.77,85.3300349712372,0,2021-06-15 21:56:24,"2-Feb-2021","pitt","new_learn",86.3897559642792,91.6791160106659,5.24,0,FALSE,"nothing",5.3490810394287,NA,"TRUE","FALSE",-0.00723600387576062,0.819184045791602
221518,1,15,1002,187,188,1,1,0,0,139.929333925247,2.08,142.061095952988,142.155628919601,0.0925910472869873,0,0.79,144.74084186554,0,2021-06-15 21:56:24,"2-Feb-2021","pitt","new_learn",145.76701593399,148.94108080864,3.13,0,FALSE,"nothing",3.2002389431,NA,"FALSE","FALSE",-0.00194191932601484,1.795212945939
221518,1,18,1002,186,187,1,1,0,0,161.836098909378,6.12,168.006182909012,168.503198862076,0.494229078292847,1,1.2,171.089479923248,0,2021-06-15 21:56:24,"2-Feb-2021","pitt","new_learn",172.133962869644,174.025275945663,1.84,0,FALSE,"nothing",1.93579602241499,NA,"FALSE","FALSE",-0.00278687477114625,1.38628106117201
221518,1,33,1002,187,188,1,0,1,0,330.792828798294,7.74,338.562804937363,338.92315196991,0.35484504699707,1,1.88,341.512976884842,0,2021-06-15 21:56:24,"2-Feb-2021","pitt","new_learn",342.568876981735,345.06191778183,2.45,0,FALSE,"win",2.54894089698803,NA,"FALSE","FALSE",-0.00550198554992709,0.709824914931971
221518,1,36,1002,186,188,1,1,0,0,362.003280878067,2.33,364.376447916031,367.08243393898,2.70350289344788,1,1.09,369.659337997437,0,2021-06-15 21:56:24,"2-Feb-2021","pitt","new_learn",370.68297791481,372.55911397934,1.83,0,FALSE,"nothing",1.89977598190302,NA,"FALSE","FALSE",-0.0024831295011114,1.48690405845701
221518,1,37,1002,187,188,1,1,0,0,370.68297791481,1.83,372.55911397934,373.061304807663,0.497464895248413,0,1.19,375.642403841019,0,2021-06-15 21:56:24,"2-Feb-2021","pitt","new_learn",376.667323827744,380.007725954056,3.29,0,FALSE,"nothing",3.365322113037,NA,"FALSE","FALSE",-0.00472593307461022,1.391099033356
221518,1,44,1002,188,187,1,1,-1,0,451.943607807159,2.25,454.23733496666,454.57897901535,0.338754892349243,1,1.01,457.180553913116,0,2021-06-15 21:56:24,"2-Feb-2021","pitt","new_learn",458.237753868103,461.820061922073,3.53,0,FALSE,"loss",3.63950800895702,NA,"FALSE","FALSE",-0.00288915634075709,1.59157489776601
221518,1,45,1002,186,187,1,1,1,0,458.237753868103,3.53,461.820061922073,461.982140779495,0.156905889511108,1,1.64,464.563108921051,0,2021-06-15 21:56:24,"2-Feb-2021","pitt","new_learn",473.478429794312,476.261140823364,2.73,1,FALSE,"win",10.6980319023129,NA,"FALSE","TRUE",-0.00517296791088068,0.940968141556027
221518,1,47,1002,188,187,1,1,1,0,480.96817779541,1.86,482.876885890961,482.96540594101,0.084467887878418,1,1.74,485.560035943985,0,2021-06-15 21:56:24,"2-Feb-2021","pitt","new_learn",495.698388814926,499.733798980713,3.99,1,FALSE,"win",13.173763036728,NA,"FALSE","TRUE",-0.00405216217058066,0.854630002975
221518,1,49,1002,187,188,1,1,0,2,521.713679790497,4.13,525.887564897537,526.001988887787,0.109724998474121,0,1.08,528.582407951355,0,2021-06-15 21:56:24,"2-Feb-2021","pitt","new_learn",549.27551484108,554.067437887192,4.74,2,FALSE,"nothing",24.485029935837,NA,"TRUE","TRUE",-0.00469899177585385,1.50041906356796
221518,1,55,1002,188,186,1,1,-1,0,600.835521936417,3.97,604.843886852264,606.597292900085,1.75007200241089,0,2.17,609.193309783936,0,2021-06-15 21:56:24,"2-Feb-2021","pitt","new_learn",610.246038913727,612.176030874252,1.89,0,FALSE,"loss",1.98272109031598,NA,"FALSE","FALSE",-0.00333404541015492,0.426016883851048
221518,1,82,1002,186,188,1,1,-1,2,1075.28928279877,2.96,1078.29656195641,1078.602643013,0.301308870315552,1,1.29,1081.19604897499,0,2021-06-15 21:56:24,"2-Feb-2021","pitt","new_learn",1082.22083878517,1084.12708187103,1.86,0,FALSE,"loss",1.93103289604005,NA,"TRUE","FALSE",-0.00477218627452181,1.30340596198994
221518,2,18,1003,191,190,1,1,1,1,193.380345821381,2.84,196.256593942642,196.992604970932,0.731831073760986,1,1.54,199.573129892349,0,2021-06-15 21:56:24,"2-Feb-2021","pitt","new_learn",200.629837989807,202.956074953079,2.28,0,FALSE,"win",2.38294506073001,NA,"TRUE","FALSE",-0.00417995452900788,1.04052492141699
221518,2,21,1003,191,189,1,1,-1,0,219.282332897186,2.04,221.370606899261,223.819404840469,2.44402194023132,0,1.11,226.40341091156,0,2021-06-15 21:56:24,"2-Feb-2021","pitt","new_learn",227.425975799561,230.536804914474,3.06,0,FALSE,"loss",3.133394002914,NA,"FALSE","FALSE",-0.0047760009766793,1.474006071091
221518,2,23,1003,189,191,1,1,-1,1,242.262619018555,2.99,245.285681962967,245.384333848953,0.0944139957427979,1,1.58,247.968653917313,0,2021-06-15 21:56:24,"2-Feb-2021","pitt","new_learn",256.524056911469,259.001377820969,2.43,1,FALSE,"loss",10.032723903656,NA,"TRUE","TRUE",-0.00423789024318917,1.00432006835999
221518,2,26,1003,190,191,1,1,1,18,410.229856967926,1.76,412.044116020203,412.617246866226,0.566229820251465,0,0.95,415.210387945175,0,2021-06-15 21:56:24,"2-Feb-2021","pitt","new_learn",416.232256889343,418.707316875458,2.42,0,FALSE,"win",2.49692893028299,NA,"TRUE","FALSE",-0.00690102577158302,1.64314107894899
221604,1,1,1000,181,182,1,1,0,0,2.76358230000005,2.58,5.5434366999998,7.89259829999992,2.24558640000032,0,1.35,11.5816261,0,2021-05-17 20:54:22,"2-Feb-2021","pitt","new_learn",11.6949315000002,15.0291161000005,3.09,0,FALSE,"nothing",2.4474900000005,NA,"FALSE","FALSE",-0.1035751999998,2.33902780000008
221604,1,2,1000,182,180,1,0,1,0,11.6949315000002,3.09,15.0291161000005,16.7046271999998,1.57199619999938,1,2.79,20.5755796000003,0,2021-05-17 20:54:22,"2-Feb-2021","pitt","new_learn",20.6812359000005,24.8817520000002,4.09,0,FALSE,"win",3.3061723999999,NA,"FALSE","FALSE",-0.103514899999918,1.0809524000005
221604,1,3,1000,181,180,1,0,0,0,20.6812359000005,4.09,24.8817520000002,26.4390204000001,1.45522720000008,1,4.15,31.7016665000001,0,2021-05-17 20:54:22,"2-Feb-2021","pitt","new_learn",31.7527660000005,34.7696894000001,2.09,0,FALSE,"nothing",2.0680229,NA,"FALSE","FALSE",-0.102041199999819,1.1126461
221604,1,7,1000,180,181,1,0,-1,0,60.6645638,2.28,63.0837358999997,64.9696149000001,1.78327800000079,0,0.96,68.6271212000001,0,2021-05-17 20:54:22,"2-Feb-2021","pitt","new_learn",68.7120356000005,72.3818706000002,3.59,0,FALSE,"loss",2.75474940000009,NA,"FALSE","FALSE",-0.102600999999604,2.69750630000001
221604,1,8,1000,182,181,1,0,0,0,68.7120356000005,3.59,72.3818706000002,73.9117017999997,1.42728819999957,0,4.79,79.8364380000003,0,2021-05-17 20:54:22,"2-Feb-2021","pitt","new_learn",79.9125383999999,82.0344616000002,1.98,0,FALSE,"nothing",1.1980235999999,NA,"FALSE","FALSE",-0.102542999999937,1.13473620000059
221604,1,9,1000,180,182,1,1,0,0,79.9125383999999,1.98,82.0344616000002,83.4242976000005,1.28761709999981,1,0.83,87.0484398999997,0,2021-05-17 20:54:22,"2-Feb-2021","pitt","new_learn",87.1237634999998,89.2160318000006,1.96,0,FALSE,"nothing",1.16759190000089,NA,"FALSE","FALSE",-0.102218900000491,2.79414229999921
221604,1,10,1000,180,181,0,1,1,0,87.1237634999998,1.96,89.2160318000006,91.0618323999997,1.74403439999969,1,0.7,94.6600317000002,94.7239864000003,2021-05-17 20:54:22,"2-Feb-2021","pitt","accrej",97.2849366,99.3762951999997,2,0,FALSE,"win",3.7162634999995,NA,"FALSE","FALSE",-0.101766199999419,2.8981993000005
221604,1,11,1000,182,180,0,0,0,0,97.2849366,2,99.3762951999997,100.5368091,1.0587131000002,1,1.11,104.187151,0,2021-05-17 20:54:22,"2-Feb-2021","pitt","accrej",104.2668952,106.7638329,2.38,0,FALSE,"nothing",1.5766819,NA,"FALSE","FALSE",-0.101800800000097,2.5403419
221604,1,12,1000,182,181,0,0,1,0,104.2668952,2.38,106.7638329,108.727880500001,1.86222949999956,0,2.61,112.4482699,0,2021-05-17 20:54:22,"2-Feb-2021","pitt","accrej",112.5249708,115.8217763,2.93,0,FALSE,"win",2.3735064,NA,"FALSE","FALSE",-0.10181810000145,1.11038939999899
221604,1,14,1000,181,180,1,0,-1,0,119.9154301,2.64,122.6726185,124.1055462,1.33063579999998,1,1.71,127.7881573,0,2021-05-17 20:54:22,"2-Feb-2021","pitt","new_learn",127.874247,131.1875224,2.89,0,FALSE,"loss",2.39936510000001,NA,"FALSE","FALSE",-0.102291900000028,1.97261109999999
221604,1,17,1000,181,182,0,1,0,0,142.3758363,2.56,145.099108,146.1527693,0.949950999999601,0,4.17,151.3890741,0,2021-05-17 20:54:22,"2-Feb-2021","pitt","accrej",151.46025,154.9058516,3.21,0,FALSE,"nothing",2.51677750000002,NA,"FALSE","FALSE",-0.103710300000387,1.06630480000001
221604,1,21,1000,180,182,1,1,0,0,178.5677513,2.67,181.2953461,182.5699644,1.1727290000008,1,0.86,186.1994354,0,2021-05-17 20:54:22,"2-Feb-2021","pitt","new_learn",186.2854054,188.622742,2.01,0,FALSE,"nothing",1.42330659999999,NA,"FALSE","FALSE",-0.101889299999214,2.76947099999998
221604,1,23,1000,180,182,0,1,1,0,192.6363727,2.2,195.033056400001,196.5873278,1.45123989999956,1,4.31,201.9729848,0,2021-05-17 20:54:22,"2-Feb-2021","pitt","accrej",202.0563576,205.0926393,2.94,0,FALSE,"win",2.1196545,NA,"FALSE","FALSE",-0.10303149999945,1.07565700000001
221604,1,24,1000,181,180,0,1,1,0,202.0563576,2.94,205.0926393,206.8961233,1.70159349999994,0,1.41,210.5332865,0,2021-05-17 20:54:22,"2-Feb-2021","pitt","accrej",210.614933,212.7156379,2.03,0,FALSE,"win",1.18235139999999,NA,"FALSE","FALSE",-0.101890500000057,2.22716320000001
221604,1,25,1000,182,181,1,0,0,0,210.614933,2.03,212.7156379,214.750121300001,1.93258440000045,0,4.29,220.1603216,0,2021-05-17 20:54:22,"2-Feb-2021","pitt","new_learn",220.239677600001,224.5795492,4.28,0,FALSE,"nothing",3.4192276,NA,"FALSE","FALSE",-0.101899000000572,1.120200299999
221604,1,26,1000,180,181,1,1,1,0,220.239677600001,4.28,224.5795492,225.7486544,1.06650489999993,1,1.53,229.387528400001,0,2021-05-17 20:54:22,"2-Feb-2021","pitt","new_learn",229.4634273,232.525420200001,2.98,0,FALSE,"win",2.13789180000001,NA,"FALSE","FALSE",-0.10260030000006,2.10887400000101
221604,1,27,1000,182,180,1,1,-1,0,229.4634273,2.98,232.525420200001,233.8151616,1.18764839999949,0,4.77,239.6473667,0,2021-05-17 20:54:22,"2-Feb-2021","pitt","new_learn",239.7254231,242.3703985,2.25,0,FALSE,"loss",1.7230318,NA,"FALSE","FALSE",-0.102092999999512,1.06220509999997
221604,1,30,1000,181,182,0,0,-1,0,257.4098772,8.12,265.6651697,267.1275648,1.36000180000065,1,1.83,270.7601876,270.8209631,2021-05-17 20:54:22,"2-Feb-2021","pitt","accrej",273.3822827,276.1736262,2.44,0,FALSE,"loss",4.41343860000001,NA,"FALSE","FALSE",-0.102393299999388,1.80262279999999
221604,1,32,1000,182,181,1,1,1,0,280.035156200001,2.76,282.9972218,284.271778,1.17284279999967,1,3.39,288.7648322,0,2021-05-17 20:54:22,"2-Feb-2021","pitt","new_learn",288.822290300001,291.3259512,2.28,0,FALSE,"win",1.56111900000002,NA,"FALSE","FALSE",-0.101713400000336,1.10305420000003
221604,1,36,1000,182,180,0,0,0,0,315.8362143,6.85,322.8086522,324.7246188,1.81336360000023,1,3.95,329.721105000001,0,2021-05-17 20:54:22,"2-Feb-2021","pitt","accrej",329.7916633,333.3611399,3.5,0,FALSE,"nothing",2.64003489999902,NA,"FALSE","FALSE",-0.10260299999976,1.04648620000103
221604,1,37,1000,180,181,1,1,1,0,329.7916633,3.5,333.3611399,334.398772,0.935935900000004,1,4.65,340.1808867,0,2021-05-17 20:54:22,"2-Feb-2021","pitt","new_learn",340.2548394,342.154550400001,1.84,0,FALSE,"win",0.973663700001055,NA,"FALSE","FALSE",-0.101696199999992,1.13211469999999
221604,1,38,1000,180,182,1,1,1,0,340.2548394,1.84,342.154550400001,343.847989800001,1.59160329999941,1,4.43,349.4081548,0,2021-05-17 20:54:22,"2-Feb-2021","pitt","new_learn",349.4784536,352.7440069,3.2,0,FALSE,"win",2.33585210000001,NA,"FALSE","FALSE",-0.101836100000578,1.13016499999895
221604,1,39,1000,181,180,1,0,1,0,349.4784536,3.2,352.7440069,353.8096567,0.963995899999645,1,1.57,357.4527991,0,2021-05-17 20:54:22,"2-Feb-2021","pitt","new_learn",357.504913100001,360.0118605,2.22,0,FALSE,"win",1.55906140000002,NA,"FALSE","FALSE",-0.101653900000372,2.07314239999999
221604,1,41,1000,181,182,0,0,1,0,368.836835300001,2.28,371.1593798,372.3884578,1.12677249999979,1,5.17,378.605444100001,0,2021-05-17 20:54:22,"2-Feb-2021","pitt","accrej",378.6900256,382.0564575,3.3,0,FALSE,"win",2.451013399999,NA,"FALSE","FALSE",-0.102305500000226,1.04698630000098
221604,1,42,1000,182,180,0,0,-1,0,378.6900256,3.3,382.0564575,383.2047768,1.04571759999999,1,1.69,386.8665924,0,2021-05-17 20:54:22,"2-Feb-2021","pitt","accrej",386.951536,389.5555368,2.32,0,FALSE,"loss",1.68894440000003,NA,"FALSE","FALSE",-0.102601699999979,1.97181560000001
221604,1,46,1000,180,182,0,1,0,0,418.262609500001,2.88,421.3245562,422.686024000001,1.25890479999998,1,3.21,426.9733871,0,2021-05-17 20:54:22,"2-Feb-2021","pitt","accrej",427.0517604,430.2157373,3.12,0,FALSE,"nothing",2.24235019999998,NA,"FALSE","FALSE",-0.102563000001,1.07736309999905
221604,1,47,1000,182,181,0,1,1,0,427.0517604,3.12,430.2157373,431.2072737,0.888330499999938,1,4.89,437.2333423,0,2021-05-17 20:54:22,"2-Feb-2021","pitt","accrej",437.3112418,439.8462419,2.45,0,FALSE,"win",1.61289959999999,NA,"FALSE","FALSE",-0.103205900000035,1.13606860000004
221604,1,48,1000,181,180,0,0,1,0,437.3112418,2.45,439.8462419,441.1185768,1.16983960000016,1,5.04,447.2933199,0,2021-05-17 20:54:22,"2-Feb-2021","pitt","accrej",447.3727081,449.6784205,1.76,0,FALSE,"win",1.38510060000004,NA,"FALSE","FALSE",-0.102495299999873,1.13474309999992
221604,1,52,1000,180,181,0,1,1,0,484.9374475,2,487.1344327,488.5466598,1.30977640000037,1,5.14,494.7120291,0,2021-05-17 20:54:22,"2-Feb-2021","pitt","accrej",494.7919316,497.3628348,2.35,0,FALSE,"win",1.65080569999998,NA,"FALSE","FALSE",-0.102450699999626,1.02536930000002
221604,1,59,1000,181,182,0,0,1,0,552.0483631,3.49,555.7131129,556.9323476,1.11700850000034,1,2.86,560.8515944,0,2021-05-17 20:54:22,"2-Feb-2021","pitt","accrej",560.9340529,563.0113044,1.8,0,FALSE,"win",1.15971000000002,NA,"FALSE","FALSE",-0.102226199999562,1.05924679999998
221604,1,61,1000,181,180,1,0,1,0,569.2959517,1.76,571.1825338,572.064315000001,0.779731200000242,1,4.26,577.3739448,0,2021-05-17 20:54:22,"2-Feb-2021","pitt","new_learn",577.4525359,581.0932949,3.41,0,FALSE,"win",2.71935010000004,NA,"FALSE","FALSE",-0.102050000000759,1.04962979999902
221604,1,64,1000,180,182,0,1,0,0,593.5364837,2.16,595.8503533,596.8180375,0.865812099999857,1,3.14,601.058287,0,2021-05-17 20:54:22,"2-Feb-2021","pitt","accrej",601.1443523,604.1551305,2.71,0,FALSE,"nothing",2.09684350000009,NA,"FALSE","FALSE",-0.101872100000037,1.10024950000002
221604,1,66,1000,182,180,0,0,0,0,608.4707346,3.75,612.3615815,613.4983548,1.03461659999994,1,5.3,619.9124259,0,2021-05-17 20:54:22,"2-Feb-2021","pitt","accrej",619.992167,623.8017894,3.71,0,FALSE,"nothing",2.88936349999995,NA,"FALSE","FALSE",-0.102156700000019,1.11407110000005
221604,1,67,1000,182,181,1,1,1,0,619.992167,3.71,623.8017894,624.6387319,0.734366499999851,1,2.05,628.2735622,0,2021-05-17 20:54:22,"2-Feb-2021","pitt","new_learn",628.3511346,630.6238323,2,0,FALSE,"win",1.35027009999999,NA,"FALSE","FALSE",-0.102576000000226,1.58483030000002
221604,1,70,1000,180,181,0,1,1,0,649.5120205,2.22,651.8303991,652.7722922,0.839737299999797,1,1.21,656.4383756,656.4691865,2021-05-17 20:54:22,"2-Feb-2021","pitt","accrej",659.0318664,662.2326206,2.85,0,FALSE,"win",4.79424500000005,NA,"FALSE","FALSE",-0.102155800000219,2.4560833999999
221604,1,72,1000,181,182,0,0,1,0,668.3548754,2.87,671.4137515,672.5436149,1.02743370000007,1,3.42,677.0579223,0,2021-05-17 20:54:22,"2-Feb-2021","pitt","accrej",677.1470192,679.7722561,2.55,0,FALSE,"win",1.71433380000008,NA,"FALSE","FALSE",-0.102429699999907,1.09430740000005
221604,1,73,1000,180,181,1,1,-1,0,677.1470192,2.55,679.7722561,680.5810778,0.706946000000244,1,2.58,684.2531876,0,2021-05-17 20:54:22,"2-Feb-2021","pitt","new_learn",684.325009,688.6607299,4.29,0,FALSE,"loss",3.40754229999993,NA,"FALSE","FALSE",-0.101875699999709,1.0921098
221604,1,74,1000,182,181,1,1,1,0,684.325009,4.29,688.6607299,689.3955488,0.632446500000697,1,1.74,693.0473841,0,2021-05-17 20:54:22,"2-Feb-2021","pitt","new_learn",693.1175885,697.6423426,3.77,0,FALSE,"win",3.59495849999996,NA,"FALSE","FALSE",-0.102372399999353,1.91183530000001
221604,1,79,1000,181,180,1,0,1,0,733.4295235,4.38,738.0030447,739.0707288,0.965145799999846,1,1.23,742.6646739,0,2021-05-17 20:54:22,"2-Feb-2021","pitt","new_learn",742.7497692,746.6779343,3.11,0,FALSE,"win",3.01326039999992,NA,"FALSE","FALSE",-0.102538300000105,2.36394510000002
221604,1,82,1000,180,182,0,1,0,0,761.3661988,2.79,764.3262001,765.4585038,1.02998299999945,1,4.59,771.1458108,0,2021-05-17 20:54:22,"2-Feb-2021","pitt","accrej",771.2271741,778.2067956,6.91,0,FALSE,"nothing",6.06098479999992,NA,"FALSE","FALSE",-0.102320700000516,1.097307
221604,1,83,1000,181,182,0,0,0,0,771.2271741,6.91,778.2067956,779.1984461,0.889452899999924,1,1.85,782.8047091,0,2021-05-17 20:54:22,"2-Feb-2021","pitt","accrej",782.8529996,787.9223143,5,0,FALSE,"nothing",4.11760520000007,NA,"FALSE","FALSE",-0.102197600000068,1.75626299999999
221604,1,84,1000,182,180,0,0,1,0,782.8529996,5,787.9223143,788.9254174,0.900892999999996,1,4.47,794.4470952,0,2021-05-17 20:54:22,"2-Feb-2021","pitt","accrej",NA,NA,NA,NA,FALSE,"win",NA,NA,"FALSE",NA,-0.10221009999998,1.05167779999999
221604,2,1,1001,184,183,1,0,1,0,2.7042234999999,3.26,6.04594650000035,8.16391370000019,2.01613029999953,1,3.66,12.9430542,0,2021-05-17 20:54:22,"2-Feb-2021","pitt","new_learn",13.0337405999999,17.7912833,3.8,0,FALSE,"win",3.8482291,NA,"FALSE","FALSE",-0.10183690000031,1.11914049999981
221604,2,4,1001,183,184,0,1,1,0,28.4720356999997,3.02,31.6338451000001,32.7870591000001,1.05120739999984,1,4.64,38.5594420999996,0,2021-05-17 20:54:22,"2-Feb-2021","pitt","accrej",38.6271600999999,43.7086793999997,4.98,0,FALSE,"win",4.1492373000001,NA,"FALSE","FALSE",-0.102006600000158,1.1323829999995
221604,2,5,1001,185,183,0,0,1,0,38.6271600999999,4.98,43.7086793999997,44.8224763999997,1.01137970000036,1,4.14,50.0184723000002,0,2021-05-17 20:54:22,"2-Feb-2021","pitt","accrej",50.0659457000002,56.2506786000004,5.32,0,FALSE,"win",5.2322063000002,NA,"FALSE","FALSE",-0.102417299999638,1.0559959000005
221604,2,8,1001,184,185,1,1,-1,0,70.8212934000003,2.75,73.7473252999998,75.6384403000002,1.78877009999997,0,2.33,79.2158146000002,0,2021-05-17 20:54:22,"2-Feb-2021","pitt","new_learn",79.314069,83.6124706999999,4.18,0,FALSE,"loss",3.3966560999997,NA,"FALSE","FALSE",-0.102344900000427,1.2473743
221604,2,9,1001,185,184,1,1,1,0,79.314069,4.18,83.6124706999999,84.8097901000001,1.09556880000036,1,1.86,88.4097854000001,0,2021-05-17 20:54:22,"2-Feb-2021","pitt","new_learn",88.4940117999995,91.4095660000003,1.97,0,FALSE,"win",1.99978060000019,NA,"FALSE","FALSE",-0.101750599999837,1.7399953
221604,2,12,1001,183,185,0,0,-1,0,111.9927811,1.91,114.0814263,115.4304538,1.24667700000009,0,2.91,119.4225056,0,2021-05-17 20:54:22,"2-Feb-2021","pitt","accrej",119.5071624,122.9279417,2.53,0,FALSE,"loss",2.50543610000001,NA,"FALSE","FALSE",-0.102350499999901,1.0820518
221604,2,14,1001,185,183,1,1,1,0,127.3387033,2.95,130.392687,132.2377653,1.74334030000045,0,1.03,135.8451728,0,2021-05-17 20:54:22,"2-Feb-2021","pitt","new_learn",135.8913878,140.133136599999,3.31,0,FALSE,"win",3.28796379999901,NA,"FALSE","FALSE",-0.101737999999562,2.57740749999999
221604,2,16,1001,184,183,0,0,1,0,145.5433887,2.3,148.0399732,149.0110508,0.869108100000631,1,2.76,152.8838702,0,2021-05-17 20:54:22,"2-Feb-2021","pitt","accrej",152.9328005,157.5978801,4.59,0,FALSE,"win",3.71400990000001,NA,"FALSE","FALSE",-0.10196949999937,1.11281940000001
221604,2,17,1001,185,184,0,1,1,0,152.9328005,4.59,157.5978801,158.4946349,0.794239899999411,1,1.36,162.1776174,0,2021-05-17 20:54:22,"2-Feb-2021","pitt","accrej",162.2968947,164.3469543,2,0,FALSE,"win",1.16933689999999,NA,"FALSE","FALSE",-0.102514900000585,2.32298249999999
221604,2,18,1001,183,185,0,0,0,0,162.2968947,2,164.3469543,165.2770857,0.828108799999427,0,4.76,171.1716384,0,2021-05-17 20:54:22,"2-Feb-2021","pitt","accrej",171.2445662,174.4420872,2.35,0,FALSE,"nothing",2.2704488,NA,"FALSE","FALSE",-0.102022600000566,1.13455270000003
221604,2,20,1001,183,184,1,1,1,0,178.0295367,4.69,182.8694036,183.8285922,0.856681799999933,1,1.03,187.4775647,187.5340843,2021-05-17 20:54:22,"2-Feb-2021","pitt","new_learn",190.0956199,192.7225283,2.52,0,FALSE,"win",4.24496360000001,NA,"FALSE","FALSE",-0.102506800000072,2.61897249999998
221604,2,21,1001,184,185,1,0,1,0,190.0956199,2.52,192.7225283,193.6683471,0.843562099999872,1,4.86,199.6362312,0,2021-05-17 20:54:22,"2-Feb-2021","pitt","new_learn",199.7223149,203.0686244,2.35,0,FALSE,"win",2.43239320000001,NA,"FALSE","FALSE",-0.10225670000014,1.10788409999998
221604,2,23,1001,183,185,0,0,1,0,206.8129357,4.62,211.5750426,212.9309335,1.25323640000079,0,5.12,219.1232358,0,2021-05-17 20:54:22,"2-Feb-2021","pitt","accrej",219.2015671,221.9028016,1.81,0,FALSE,"win",1.7795658,NA,"FALSE","FALSE",-0.10265449999923,1.07230229999999
221604,2,27,1001,183,184,1,1,0,0,246.6134363,2.64,249.4393777,250.6443231,1.10274780000054,1,1.14,254.2500246,0,2021-05-17 20:54:22,"2-Feb-2021","pitt","new_learn",254.330197,257.4431103,2.06,0,FALSE,"nothing",2.19308570000001,NA,"FALSE","FALSE",-0.102197599999474,2.46570149999999
221604,2,30,1001,184,183,0,0,1,0,270.1053385,2.51,272.7327454,273.9107807,1.07636900000034,1,1.68,277.5511573,277.6064252,2021-05-17 20:54:22,"2-Feb-2021","pitt","accrej",280.1725484,282.925529,1.87,0,FALSE,"win",4.37437169999998,NA,"FALSE","FALSE",-0.101666299999636,1.96037660000002
221604,2,33,1001,184,185,1,0,1,0,300.2608587,2.23,302.6792872,303.5741455,0.7930307000006,1,4.97,309.5967593,0,2021-05-17 20:54:22,"2-Feb-2021","pitt","new_learn",309.6812197,313.5762696,3.84,0,FALSE,"win",2.97951030000002,NA,"FALSE","FALSE",-0.10182759999941,1.05261379999996
221604,2,34,1001,185,184,0,1,-1,0,309.6812197,3.84,313.5762696,314.364494,0.685827100000097,1,5.05,320.522791,0,2021-05-17 20:54:22,"2-Feb-2021","pitt","accrej",320.575045,322.6745032,1.97,0,FALSE,"loss",1.15171220000002,NA,"FALSE","FALSE",-0.102397299999893,1.10829699999999
221604,2,35,1001,185,183,0,1,-1,0,320.575045,1.97,322.6745032,323.8940654,1.11759929999971,0,4.98,329.9166984,0,2021-05-17 20:54:22,"2-Feb-2021","pitt","accrej",329.9952052,333.0954001,2.3,0,FALSE,"loss",2.17870170000003,NA,"FALSE","FALSE",-0.101962900000274,1.04263299999997
221604,2,38,1001,183,185,1,0,-1,0,345.7757322,1.84,347.7634642,348.7867134,0.920733899999505,0,2.23,352.3684689,0,2021-05-17 20:54:22,"2-Feb-2021","pitt","new_learn",352.4255579,354.950664,2.43,0,FALSE,"loss",1.58219510000004,NA,"FALSE","FALSE",-0.102515300000504,1.35175549999997
221604,2,39,1001,184,183,1,0,1,0,352.4255579,2.43,354.950664,355.8535442,0.800465899999836,1,3.77,360.7297373,0,2021-05-17 20:54:22,"2-Feb-2021","pitt","new_learn",360.8094924,365.0960792,3.33,0,FALSE,"win",3.36634190000001,NA,"FALSE","FALSE",-0.102414300000134,1.10619310000004
221604,2,41,1001,183,184,0,1,1,0,373.9139481,2.38,376.3464666,377.4887365,1.03971749999982,1,3.77,382.3153748,0,2021-05-17 20:54:22,"2-Feb-2021","pitt","accrej",382.3983456,389.0787019,5.87,0,FALSE,"win",5.76332710000003,NA,"FALSE","FALSE",-0.102552400000211,1.05663829999997
221604,2,43,1001,184,185,1,1,-1,0,392.8758873,3.36,396.3581795,397.5937338,1.13292649999948,0,3.24,401.9022851,0,2021-05-17 20:54:22,"2-Feb-2021","pitt","new_learn",401.9567011,404.6297845,1.77,0,FALSE,"loss",1.72749940000006,NA,"FALSE","FALSE",-0.10262780000051,1.06855129999997
221604,2,45,1001,185,184,1,1,1,0,411.4849128,1.87,413.5041755,414.3930703,0.786015300000145,1,2.69,418.1750385,0,2021-05-17 20:54:22,"2-Feb-2021","pitt","new_learn",418.2604781,420.9358259,1.78,0,FALSE,"win",1.76078739999997,NA,"FALSE","FALSE",-0.102879499999858,1.09196820000005
221604,2,47,1001,185,183,0,0,-1,0,424.8219082,2.79,427.781788300001,429.4406504,1.55643659999987,1,0.95,433.114903399999,0,2021-05-17 20:54:22,"2-Feb-2021","pitt","accrej",433.202093899999,436.4187339,2.3,0,FALSE,"loss",2.30383050000103,NA,"FALSE","FALSE",-0.102425499999129,2.72425299999901
221604,2,49,1001,183,185,1,0,-1,0,443.871956499999,3.03,447.0270194,448.2082037,1.07938869999998,0,3.48,452.8025364,0,2021-05-17 20:54:22,"2-Feb-2021","pitt","new_learn",452.8900151,456.098196200001,2.32,0,FALSE,"loss",2.29565980000098,NA,"FALSE","FALSE",-0.101795600000061,1.11433269999998
221604,2,53,1001,183,184,0,1,0,0,483.1389638,7.49,490.749965700001,491.8911943,1.03754729999855,1,3.67,496.6230234,0,2021-05-17 20:54:22,"2-Feb-2021","pitt","accrej",496.7042083,500.164448899999,3.38,0,FALSE,"nothing",2.54142549999898,NA,"FALSE","FALSE",-0.10368130000046,1.06182910000001
221604,2,54,1001,184,183,0,0,1,0,496.7042083,3.38,500.164448899999,501.1939062,0.926695200001632,1,3.31,505.6171428,0,2021-05-17 20:54:22,"2-Feb-2021","pitt","accrej",505.6890351,508.117723900001,2.36,0,FALSE,"win",1.500581100001,NA,"FALSE","FALSE",-0.102762099999381,1.11323659999999
221604,2,55,1001,185,184,1,1,1,0,505.6890351,2.36,508.117723900001,509.249865100001,1.02951099999882,1,0.75,512.895484500001,0,2021-05-17 20:54:22,"2-Feb-2021","pitt","new_learn",512.977593199999,516.042919899999,3.01,0,FALSE,"win",2.14743539999802,NA,"FALSE","FALSE",-0.102630200001158,2.89561939999999
221604,2,56,1001,185,183,1,1,-1,0,512.977593199999,3.01,516.042919899999,517.6749005,1.52824880000117,0,3.09,521.8233299,0,2021-05-17 20:54:22,"2-Feb-2021","pitt","new_learn",521.8761715,526.7762535,3.96,0,FALSE,"loss",3.95292360000008,NA,"FALSE","FALSE",-0.103731799999873,1.05842939999991
221604,2,58,1001,184,185,0,0,1,0,531.929927699999,8.03,540.0769841,541.021340200001,0.842105899999297,1,0.88,544.674410699999,0,2021-05-17 20:54:22,"2-Feb-2021","pitt","accrej",544.730973600001,547.5531173,2.5,0,FALSE,"win",1.87870660000101,NA,"FALSE","FALSE",-0.102250200001663,2.77307049999808
221604,2,61,1001,185,183,1,0,1,0,566.4213707,4.71,571.190965399999,572.317360700001,1.02419750000081,1,2.23,576.003835400001,0,2021-05-17 20:54:22,"2-Feb-2021","pitt","new_learn",576.076730700001,583.354896000001,7.18,0,FALSE,"win",6.35106059999998,NA,"FALSE","FALSE",-0.102197800001249,1.45647469999994
221604,2,62,1001,185,184,1,1,1,0,576.076730700001,7.18,583.354896000001,584.670356299999,1.21325459999935,1,1.6,588.2622813,0,2021-05-17 20:54:22,"2-Feb-2021","pitt","new_learn",588.3397828,592.5753804,4.15,0,FALSE,"win",3.31309909999993,NA,"FALSE","FALSE",-0.102205699998644,1.99192500000106
221604,2,63,1001,183,184,1,1,1,0,588.3397828,4.15,592.5753804,593.744472599999,1.06689759999972,1,1.24,597.389481599999,0,2021-05-17 20:54:22,"2-Feb-2021","pitt","new_learn",597.4344366,601.041536700001,3.25,0,FALSE,"win",2.65205510000192,NA,"FALSE","FALSE",-0.10219459999928,2.40500900000006
221604,2,67,1001,183,185,1,1,1,0,625.4800559,1.76,627.3689452,628.739956400001,1.26725819999956,1,4.4,634.2152809,0,2021-05-17 20:54:22,"2-Feb-2021","pitt","new_learn",634.2627854,637.7616497,3.45,0,FALSE,"win",2.54636879999998,NA,"FALSE","FALSE",-0.103753000001461,1.07532449999906
221604,2,68,1001,184,183,1,0,1,0,634.2627854,3.45,637.7616497,638.6894254,0.825644599999578,1,1.97,642.343204299999,0,2021-05-17 20:54:22,"2-Feb-2021","pitt","new_learn",642.413604400001,645.072774,1.78,0,FALSE,"win",1.72956970000098,NA,"FALSE","FALSE",-0.102131100000406,1.68377889999897
221604,2,74,1001,184,185,1,0,1,0,686.8692132,4.54,691.604227399999,692.5836069,0.878002200000992,1,2.34,696.207571999999,0,2021-05-17 20:54:22,"2-Feb-2021","pitt","new_learn",696.3092339,699.4567678,3.08,0,FALSE,"win",2.24919580000096,NA,"FALSE","FALSE",-0.101377299999967,1.28396509999902
221604,2,75,1001,185,183,1,1,-1,0,696.3092339,3.08,699.4567678,700.2378555,0.679599900000539,0,1.02,703.8357392,0,2021-05-17 20:54:22,"2-Feb-2021","pitt","new_learn",703.931992899999,707.042924199999,1.97,0,FALSE,"loss",2.20718499999896,NA,"FALSE","FALSE",-0.101487799999518,2.57788370000003
221604,2,77,1001,183,185,0,1,-1,0,712.803240499999,2.95,715.862602699999,717.0034094,1.03969570000118,1,5.25,723.3229424,0,2021-05-17 20:54:22,"2-Feb-2021","pitt","accrej",723.395058,725.6944939,2.23,0,FALSE,"loss",1.37155150000001,NA,"FALSE","FALSE",-0.101110999999828,1.06953299999998
221604,2,78,1001,185,184,0,1,1,0,723.395058,2.23,725.6944939,726.474394999999,0.677859899999021,1,2.52,730.101720299999,0,2021-05-17 20:54:22,"2-Feb-2021","pitt","accrej",730.141578000001,733.1085129,2.83,0,FALSE,"win",2.00679260000106,NA,"FALSE","FALSE",-0.10204120000003,1.10732529999996
221604,2,79,1001,183,184,1,1,0,0,730.141578000001,2.83,733.1085129,733.904856699999,0.694879700000456,1,4.32,739.2957205,0,2021-05-17 20:54:22,"2-Feb-2021","pitt","new_learn",739.373281300001,743.7079942,3.96,0,FALSE,"nothing",3.41227370000001,NA,"FALSE","FALSE",-0.101464099998452,1.07086380000101
221604,2,82,1001,184,185,0,0,1,0,759.9943465,1.81,761.9865078,762.9009795,0.812878299999284,1,4.03,767.976631400001,0,2021-05-17 20:54:22,"2-Feb-2021","pitt","accrej",768.0509045,771.475590599999,2.59,0,FALSE,"win",2.49895919999801,NA,"FALSE","FALSE",-0.101593400000638,1.04565190000108
221604,2,84,1001,184,183,0,0,1,0,775.8708286,5,781.0400374,782.2162811,1.07428419999997,1,4.97,788.2965353,0,2021-05-17 20:54:22,"2-Feb-2021","pitt","accrej",NA,NA,NA,NA,FALSE,"win",NA,NA,"FALSE",NA,-0.101959500000016,1.11025419999999
221604,3,1,1002,187,186,1,0,1,0,2.65459310000006,2.36,5.22101380000095,6.91958049999994,1.59693390000029,1,4.26,12.206705300001,0,2021-05-17 20:54:22,"2-Feb-2021","pitt","new_learn",12.2897352,14.7271498000009,2.35,0,FALSE,"win",1.5204444999999,NA,"FALSE","FALSE",-0.1016327999987,1.02712480000106
221604,3,2,1002,186,188,1,0,-1,0,12.2897352,2.35,14.7271498000009,15.9387282000007,1.11070139999902,0,0.79,19.5351284000008,0,2021-05-17 20:54:22,"2-Feb-2021","pitt","new_learn",19.5775764000009,22.4278083999998,1.81,0,FALSE,"loss",1.892679999999,NA,"FALSE","FALSE",-0.10087700000078,2.8064002000001
221604,3,4,1002,188,186,0,1,-1,0,27.5309973000003,3.6,31.3282326999997,32.4219537000008,0.991685200000575,0,1.85,36.0408657999997,0,2021-05-17 20:54:22,"2-Feb-2021","pitt","accrej",36.1088005000001,40.8778356000003,4.41,0,FALSE,"loss",3.8369698000006,NA,"FALSE","FALSE",-0.102035800000525,1.7689120999989
221604,3,6,1002,186,187,0,1,1,0,47.1165729000004,2.58,49.8479908000008,50.9990543000004,1.04888779999965,1,3.36,55.4946773000011,0,2021-05-17 20:54:22,"2-Feb-2021","pitt","accrej",55.5693050999998,59.1693656000007,3.52,0,FALSE,"win",2.6746882999996,NA,"FALSE","FALSE",-0.102175699999951,1.1356230000007
221604,3,7,1002,187,188,1,1,0,0,55.5693050999998,3.52,59.1693656000007,60.0896068000002,0.818558299999495,0,2.42,63.7391924000003,0,2021-05-17 20:54:22,"2-Feb-2021","pitt","new_learn",63.8452746000003,66.9279454000007,2.06,0,FALSE,"nothing",2.1887530000004,NA,"FALSE","FALSE",-0.1016829,1.2295856000001
221604,3,9,1002,188,187,1,0,1,0,71.0170865,3.94,75.1462807999997,76.3339962000009,1.08646890000091,0,1.77,79.9618941999997,0,2021-05-17 20:54:22,"2-Feb-2021","pitt","new_learn",80.0226351000001,85.3079342000001,5.24,0,FALSE,"win",4.3460400000004,NA,"FALSE","FALSE",-0.101246500000286,1.85789799999881
221604,3,10,1002,186,187,0,1,1,0,80.0226351000001,5.24,85.3079342000001,86.4043684999997,0.995032300001185,1,4.92,92.4203260000013,92.4814907,2021-05-17 20:54:22,"2-Feb-2021","pitt","accrej",95.065978300001,96.9384583999999,1.78,0,FALSE,"win",3.51813239999861,NA,"FALSE","FALSE",-0.101401999998416,1.09595750000159
221604,3,11,1002,187,186,0,0,1,0,95.065978300001,1.78,96.9384583999999,97.9868979000003,0.946427799999583,1,4.91,103.9792923,0,2021-05-17 20:54:22,"2-Feb-2021","pitt","accrej",104.033191,108.265376400001,4.18,0,FALSE,"win",3.28608410000101,NA,"FALSE","FALSE",-0.102011700000815,1.0823943999997
221604,3,12,1002,188,186,0,0,0,0,104.033191,4.18,108.265376400001,109.6314965,1.26454509999894,1,3.03,113.706296300001,0,2021-05-17 20:54:22,"2-Feb-2021","pitt","accrej",113.789977600001,117.3211808,2.3,0,FALSE,"nothing",2.61488449999899,NA,"FALSE","FALSE",-0.101575000000054,1.044799800001
221604,3,15,1002,188,187,1,0,0,0,131.9741239,2.08,134.199043500001,135.146391100001,0.844920300000013,0,0.79,138.772965300001,0,2021-05-17 20:54:22,"2-Feb-2021","pitt","new_learn",138.8562179,142.1217891,3.13,0,FALSE,"nothing",2.348823799999,NA,"FALSE","FALSE",-0.102427299999988,2.8365742
221604,3,16,1002,187,188,0,0,-1,0,138.8562179,3.13,142.1217891,143.3704387,1.14510790000168,1,5.21,149.7156275,0,2021-05-17 20:54:22,"2-Feb-2021","pitt","accrej",149.751985700001,151.9833846,2.11,0,FALSE,"loss",1.26775709999998,NA,"FALSE","FALSE",-0.103541699998313,1.13518880000001
221604,3,17,1002,186,188,0,1,0,0,149.751985700001,2.11,151.9833846,153.0112756,0.926601200000732,1,2.71,156.7943908,0,2021-05-17 20:54:22,"2-Feb-2021","pitt","accrej",156.8575143,163.076910900001,6.12,0,FALSE,"nothing",5.28252010000099,NA,"FALSE","FALSE",-0.101289799999279,1.07311519999999
221604,3,18,1002,188,187,0,1,0,0,156.8575143,6.12,163.076910900001,164.1404833,0.960960200000045,1,1.2,167.7870097,0,2021-05-17 20:54:22,"2-Feb-2021","pitt","accrej",167.887963900001,170.330480800001,1.84,0,FALSE,"nothing",1.543471100001,NA,"FALSE","FALSE",-0.102612199998958,2.44652640000001
221604,3,20,1002,187,186,1,0,1,0,177.418799000001,6.9,184.4686619,185.5233818,0.952672800000073,1,4.3,190.955069,191.008273200001,2021-05-17 20:54:22,"2-Feb-2021","pitt","new_learn",193.5885788,195.567251800001,1.84,0,FALSE,"win",3.61218280000099,NA,"FALSE","FALSE",-0.102047099999936,1.13168719999999
221604,3,21,1002,186,188,1,1,-1,0,193.5885788,1.84,195.567251800001,196.590352500001,0.921758099999352,1,4.15,201.781275400001,0,2021-05-17 20:54:22,"2-Feb-2021","pitt","new_learn",201.8216161,205.2051858,2.35,0,FALSE,"loss",2.42391039999902,NA,"FALSE","FALSE",-0.101342600000634,1.0409229
221604,3,28,1002,188,186,0,0,0,0,261.548304400001,3.5,265.2121272,267.0547004,1.74069170000075,1,3.29,271.401931800001,0,2021-05-17 20:54:22,"2-Feb-2021","pitt","accrej",271.479473200001,273.4677123,1.85,0,FALSE,"nothing",1.06578049999899,NA,"FALSE","FALSE",-0.101881499999254,1.057231400001
221604,3,29,1002,187,188,0,0,1,0,271.479473200001,1.85,273.4677123,274.9061674,1.33605290000014,1,2.97,278.9135336,0,2021-05-17 20:54:22,"2-Feb-2021","pitt","accrej",279.0139714,282.1112075,2.69,0,FALSE,"win",2.19767389999998,NA,"FALSE","FALSE",-0.102402199999859,1.03736619999995
221604,3,33,1002,186,187,1,1,1,0,311.3808095,7.74,319.2919341,320.3543852,0.960022000001118,1,1.88,324.000393300001,0,2021-05-17 20:54:22,"2-Feb-2021","pitt","new_learn",324.075841600001,326.8116092,2.45,0,FALSE,"win",1.81121589999901,NA,"FALSE","FALSE",-0.102429099998914,1.76600810000099
221604,3,36,1002,187,186,0,0,1,0,346.856981000001,2.33,349.3648651,350.8811922,1.41412010000022,1,1.09,354.4801106,0,2021-05-17 20:54:22,"2-Feb-2021","pitt","accrej",354.553961200001,356.4511853,1.83,0,FALSE,"win",0.971074700000031,NA,"FALSE","FALSE",-0.102206999999792,2.50891840000003
221604,3,37,1002,188,187,1,1,-1,0,354.553961200001,1.83,356.4511853,358.016968,1.46478860000025,1,1.19,361.658840800001,0,2021-05-17 20:54:22,"2-Feb-2021","pitt","new_learn",361.7420387,365.279343100001,3.29,0,FALSE,"loss",2.6205023,NA,"FALSE","FALSE",-0.10099409999975,2.45187280000096
221604,3,40,1002,187,188,0,0,1,0,379.087905800001,2.31,381.5176293,382.4391452,0.820485800000824,1,2.64,386.1258622,386.186405500001,2021-05-17 20:54:22,"2-Feb-2021","pitt","accrej",388.7463329,393.8701024,4.84,0,FALSE,"win",6.74424020000004,NA,"FALSE","FALSE",-0.10103009999915,1.046717
221604,3,43,1002,186,187,1,1,1,0,405.5598242,1.93,407.6538636,408.507215600001,0.75228210000023,1,3.58,413.2080718,0,2021-05-17 20:54:22,"2-Feb-2021","pitt","new_learn",413.2980295,415.608098000001,2.25,0,FALSE,"win",1.40002620000098,NA,"FALSE","FALSE",-0.101069900000766,1.12085619999903
221604,3,44,1002,188,186,1,0,0,0,413.2980295,2.25,415.608098000001,416.6734364,0.962867300000653,1,1.01,420.3200039,0,2021-05-17 20:54:22,"2-Feb-2021","pitt","new_learn",420.363344000001,423.961064000001,3.53,0,FALSE,"nothing",2.64106010000097,NA,"FALSE","FALSE",-0.102471099998354,2.63656750000001
221604,3,45,1002,186,188,1,1,1,0,420.363344000001,3.53,423.961064000001,424.6319836,0.56896450000022,1,1.64,428.2314047,0,2021-05-17 20:54:22,"2-Feb-2021","pitt","new_learn",428.338375400001,431.356959000001,2.73,0,FALSE,"win",2.125554300001,NA,"FALSE","FALSE",-0.101955099998804,1.95942109999999
221604,3,47,1002,187,188,0,0,1,0,437.4095894,1.86,439.405363100001,440.4251076,0.918707799999538,1,1.74,444.0209638,0,2021-05-17 20:54:22,"2-Feb-2021","pitt","accrej",444.112003800001,448.3799915,3.99,0,FALSE,"win",3.35902770000001,NA,"FALSE","FALSE",-0.10103669999944,1.85585620000001
221604,3,49,1002,186,188,1,1,1,0,453.088812600001,4.13,457.4178226,458.279266900001,0.76023720000012,1,1.08,461.8924929,0,2021-05-17 20:54:22,"2-Feb-2021","pitt","new_learn",461.9947598,467.0176993,4.74,0,FALSE,"win",4.12520640000002,NA,"FALSE","FALSE",-0.101207100000863,2.53322599999899
221604,3,51,1002,186,187,1,1,1,0,475.612689400001,1.88,477.6023367,478.5863465,0.882678200001465,1,3.83,483.4782225,0,2021-05-17 20:54:22,"2-Feb-2021","pitt","new_learn",483.5597392,486.913664400001,3.05,0,FALSE,"win",2.43544190000097,NA,"FALSE","FALSE",-0.101331599998502,1.06187600000004
221604,3,55,1002,188,186,1,0,-1,0,508.1379063,3.97,512.235475000001,513.1778739,0.840537299998687,1,2.17,516.8395062,0,2021-05-17 20:54:22,"2-Feb-2021","pitt","new_learn",516.8877135,518.912021600001,1.89,0,FALSE,"loss",1.07251540000107,NA,"FALSE","FALSE",-0.101861600000347,1.49163229999999
221604,3,56,1002,188,187,1,1,1,0,516.8877135,1.89,518.912021600001,520.272536600001,1.25883099999919,1,5.21,526.566421,0,2021-05-17 20:54:22,"2-Feb-2021","pitt","new_learn",526.6427129,528.640456700001,1.89,0,FALSE,"win",1.07403570000099,NA,"FALSE","FALSE",-0.101684000000774,1.08388439999896
221604,3,57,1002,187,186,1,0,1,0,526.6427129,1.89,528.640456700001,529.5842352,0.84159770000042,1,4.81,535.4608432,0,2021-05-17 20:54:22,"2-Feb-2021","pitt","new_learn",535.531902000001,538.0627221,2.48,0,FALSE,"win",1.60187889999997,NA,"FALSE","FALSE",-0.102180799998564,1.06660800000009
221604,3,58,1002,188,187,0,1,1,0,535.531902000001,2.48,538.0627221,539.064698600001,0.900363600001583,1,4.55,544.6709938,0,2021-05-17 20:54:22,"2-Feb-2021","pitt","accrej",544.7433585,547.125956,2.14,0,FALSE,"win",1.45496219999995,NA,"FALSE","FALSE",-0.101612899999395,1.05629519999911
