"id","run_number","trial","block","stim1","stim2","feedback","choice","outcome","times_too_slow","trial_started","iti_ideal_lag","stim_time","choice_time","reaction_time","correct_choice","feedback_isi","feedback_time","every_ten","experiment_date","experiment_build","site","trial_type","trial_started_next","stim_time_next","iti_ideal","too_slow_lead","bad_trial","outcome_fac","iti_actual","trial_completed","was_slow","was_slow_lead","rt_diff","feedback_diff","onset_diff"
221518,1,31,1002,15,-1000,0,1,-1,0,289.642260789871,5.69,295.381004810333,295.566112995148,0.201382875442505,1,5.29,300.917877912521,0,2021-06-15 21:56:24,"2-Feb-2021","pitt","accrej",322.677361011505,327.964567899704,5.24,2,FALSE,"loss",26.046689987183,NA,"FALSE","TRUE",0.0162746906275403,0.0617649173730115,20.759483098984
221518,1,56,1002,186,188,1,1,0,0,610.246038913727,1.89,612.176030874252,613.940452814102,1.76072001457214,1,5.21,619.175929784775,0,2021-06-15 21:56:24,"2-Feb-2021","pitt","new_learn",690.04575586319,691.98205780983,1.89,10,FALSE,"nothing",71.8061280250551,NA,"FALSE","TRUE",-0.0037019252778272,0.0254769706730258,69.869826078415
221518,1,79,1002,89,-1000,0,1,1,0,983.540196895599,1.87,985.458907842636,985.787683010101,0.34134316444397,1,4.82,990.650019884109,0,2021-06-15 21:56:24,"2-Feb-2021","pitt","accrej",1038.49443697929,1042.78469395638,4.25,5,FALSE,"win",51.1346740722709,NA,"FALSE","TRUE",0.0125679969789874,0.042336874008015,46.8444170951809
221518,2,1,1003,103,-1000,0,1,0,0,2.57116889953613,2.3,4.9189829826355,5.38294696807861,0.471404075622559,0,2.21,7.63507890701294,0,2021-06-15 21:56:24,"2-Feb-2021","pitt","accrej",0,0,0,0,FALSE,"nothing",-8.63507890701294,NA,"FALSE","FALSE",0.00744009017944908,0.0421319389343306,-8.63507890701294
221518,2,25,1003,83,-1000,0,1,-1,2,280.409911870956,2.77,283.233021020889,284.035480976105,0.812647819519043,1,1.63,285.699618816376,0,2021-06-15 21:56:24,"2-Feb-2021","pitt","accrej",410.229856967926,412.044116020203,1.76,18,FALSE,"loss",125.344497203827,NA,"TRUE","TRUE",0.0101878643030204,0.0341378402710006,123.53023815155
221518,2,28,1003,72,-1000,0,0,-1,21,579.547379970551,2.39,581.972790002823,582.20863699913,0.240591049194336,0,4.85,587.087065935135,0,2021-06-15 21:56:24,"2-Feb-2021","pitt","accrej",649.751523971558,654.97886800766,5.18,7,FALSE,"loss",66.891802072525,NA,"TRUE","TRUE",0.00474405288730401,0.028428936004957,61.664458036423
221604,1,1,1000,181,182,1,1,0,0,2.76358230000005,2.58,5.5434366999998,7.89259829999992,2.24558640000032,0,1.35,11.5816261,0,2021-05-17 20:54:22,"2-Feb-2021","pitt","new_learn",11.6949315000002,15.0291161000005,3.09,0,FALSE,"nothing",2.4474900000005,NA,"FALSE","FALSE",-0.1035751999998,2.33902780000008,-0.886694599999799
221604,1,2,1000,182,180,1,0,1,0,11.6949315000002,3.09,15.0291161000005,16.7046271999998,1.57199619999938,1,2.79,20.5755796000003,0,2021-05-17 20:54:22,"2-Feb-2021","pitt","new_learn",20.6812359000005,24.8817520000002,4.09,0,FALSE,"win",3.3061723999999,NA,"FALSE","FALSE",-0.103514899999918,1.0809524000005,-0.894343699999798
221604,1,3,1000,181,180,1,0,0,0,20.6812359000005,4.09,24.8817520000002,26.4390204000001,1.45522720000008,1,4.15,31.7016665000001,0,2021-05-17 20:54:22,"2-Feb-2021","pitt","new_learn",31.7527660000005,34.7696894000001,2.09,0,FALSE,"nothing",2.0680229,NA,"FALSE","FALSE",-0.102041199999819,1.1126461,-0.948900499999603
221604,1,7,1000,180,181,1,0,-1,0,60.6645638,2.28,63.0837358999997,64.9696149000001,1.78327800000079,0,0.96,68.6271212000001,0,2021-05-17 20:54:22,"2-Feb-2021","pitt","new_learn",68.7120356000005,72.3818706000002,3.59,0,FALSE,"loss",2.75474940000009,NA,"FALSE","FALSE",-0.102600999999604,2.69750630000001,-0.9150855999996
221604,1,8,1000,182,181,1,0,0,0,68.7120356000005,3.59,72.3818706000002,73.9117017999997,1.42728819999957,0,4.79,79.8364380000003,0,2021-05-17 20:54:22,"2-Feb-2021","pitt","new_learn",79.9125383999999,82.0344616000002,1.98,0,FALSE,"nothing",1.1980235999999,NA,"FALSE","FALSE",-0.102542999999937,1.13473620000059,-0.923899600000397
221604,1,9,1000,180,182,1,1,0,0,79.9125383999999,1.98,82.0344616000002,83.4242976000005,1.28761709999981,1,0.83,87.0484398999997,0,2021-05-17 20:54:22,"2-Feb-2021","pitt","new_learn",87.1237634999998,89.2160318000006,1.96,0,FALSE,"nothing",1.16759190000089,NA,"FALSE","FALSE",-0.102218900000491,2.79414229999921,-0.92467639999991
221604,1,10,1000,180,181,0,1,1,0,87.1237634999998,1.96,89.2160318000006,91.0618323999997,1.74403439999969,1,0.7,94.6600317000002,94.7239864000003,2021-05-17 20:54:22,"2-Feb-2021","pitt","accrej",97.2849366,99.3762951999997,2,0,FALSE,"win",3.7162634999995,NA,"FALSE","FALSE",-0.101766199999419,2.8981993000005,-0.875095100000209
221604,1,11,1000,182,180,0,0,0,0,97.2849366,2,99.3762951999997,100.5368091,1.0587131000002,1,1.11,104.187151,0,2021-05-17 20:54:22,"2-Feb-2021","pitt","accrej",104.2668952,106.7638329,2.38,0,FALSE,"nothing",1.5766819,NA,"FALSE","FALSE",-0.101800800000097,2.5403419,-0.920255800000007
221604,1,12,1000,182,181,0,0,1,0,104.2668952,2.38,106.7638329,108.727880500001,1.86222949999956,0,2.61,112.4482699,0,2021-05-17 20:54:22,"2-Feb-2021","pitt","accrej",112.5249708,115.8217763,2.93,0,FALSE,"win",2.3735064,NA,"FALSE","FALSE",-0.10181810000145,1.11038939999899,-0.923299099999994
221604,1,14,1000,181,180,1,0,-1,0,119.9154301,2.64,122.6726185,124.1055462,1.33063579999998,1,1.71,127.7881573,0,2021-05-17 20:54:22,"2-Feb-2021","pitt","new_learn",127.874247,131.1875224,2.89,0,FALSE,"loss",2.39936510000001,NA,"FALSE","FALSE",-0.102291900000028,1.97261109999999,-0.913910299999998
221604,1,17,1000,181,182,0,1,0,0,142.3758363,2.56,145.099108,146.1527693,0.949950999999601,0,4.17,151.3890741,0,2021-05-17 20:54:22,"2-Feb-2021","pitt","accrej",151.46025,154.9058516,3.21,0,FALSE,"nothing",2.51677750000002,NA,"FALSE","FALSE",-0.103710300000387,1.06630480000001,-0.928824099999986
221604,1,21,1000,180,182,1,1,0,0,178.5677513,2.67,181.2953461,182.5699644,1.1727290000008,1,0.86,186.1994354,0,2021-05-17 20:54:22,"2-Feb-2021","pitt","new_learn",186.2854054,188.622742,2.01,0,FALSE,"nothing",1.42330659999999,NA,"FALSE","FALSE",-0.101889299999214,2.76947099999998,-0.914029999999997
221604,1,23,1000,180,182,0,1,1,0,192.6363727,2.2,195.033056400001,196.5873278,1.45123989999956,1,4.31,201.9729848,0,2021-05-17 20:54:22,"2-Feb-2021","pitt","accrej",202.0563576,205.0926393,2.94,0,FALSE,"win",2.1196545,NA,"FALSE","FALSE",-0.10303149999945,1.07565700000001,-0.916627199999994
221604,1,24,1000,181,180,0,1,1,0,202.0563576,2.94,205.0926393,206.8961233,1.70159349999994,0,1.41,210.5332865,0,2021-05-17 20:54:22,"2-Feb-2021","pitt","accrej",210.614933,212.7156379,2.03,0,FALSE,"win",1.18235139999999,NA,"FALSE","FALSE",-0.101890500000057,2.22716320000001,-0.918353499999995
221604,1,25,1000,182,181,1,0,0,0,210.614933,2.03,212.7156379,214.750121300001,1.93258440000045,0,4.29,220.1603216,0,2021-05-17 20:54:22,"2-Feb-2021","pitt","new_learn",220.239677600001,224.5795492,4.28,0,FALSE,"nothing",3.4192276,NA,"FALSE","FALSE",-0.101899000000572,1.120200299999,-0.920643999999015
221604,1,26,1000,180,181,1,1,1,0,220.239677600001,4.28,224.5795492,225.7486544,1.06650489999993,1,1.53,229.387528400001,0,2021-05-17 20:54:22,"2-Feb-2021","pitt","new_learn",229.4634273,232.525420200001,2.98,0,FALSE,"win",2.13789180000001,NA,"FALSE","FALSE",-0.10260030000006,2.10887400000101,-0.924101100000996
221604,1,27,1000,182,180,1,1,-1,0,229.4634273,2.98,232.525420200001,233.8151616,1.18764839999949,0,4.77,239.6473667,0,2021-05-17 20:54:22,"2-Feb-2021","pitt","new_learn",239.7254231,242.3703985,2.25,0,FALSE,"loss",1.7230318,NA,"FALSE","FALSE",-0.102092999999512,1.06220509999997,-0.921943599999992
221604,1,30,1000,181,182,0,0,-1,0,257.4098772,8.12,265.6651697,267.1275648,1.36000180000065,1,1.83,270.7601876,270.8209631,2021-05-17 20:54:22,"2-Feb-2021","pitt","accrej",273.3822827,276.1736262,2.44,0,FALSE,"loss",4.41343860000001,NA,"FALSE","FALSE",-0.102393299999388,1.80262279999999,-0.877904899999976
221604,1,32,1000,182,181,1,1,1,0,280.035156200001,2.76,282.9972218,284.271778,1.17284279999967,1,3.39,288.7648322,0,2021-05-17 20:54:22,"2-Feb-2021","pitt","new_learn",288.822290300001,291.3259512,2.28,0,FALSE,"win",1.56111900000002,NA,"FALSE","FALSE",-0.101713400000336,1.10305420000003,-0.942541899999014
221604,1,36,1000,182,180,0,0,0,0,315.8362143,6.85,322.8086522,324.7246188,1.81336360000023,1,3.95,329.721105000001,0,2021-05-17 20:54:22,"2-Feb-2021","pitt","accrej",329.7916633,333.3611399,3.5,0,FALSE,"nothing",2.64003489999902,NA,"FALSE","FALSE",-0.10260299999976,1.04648620000103,-0.929441700001007
221604,1,37,1000,180,181,1,1,1,0,329.7916633,3.5,333.3611399,334.398772,0.935935900000004,1,4.65,340.1808867,0,2021-05-17 20:54:22,"2-Feb-2021","pitt","new_learn",340.2548394,342.154550400001,1.84,0,FALSE,"win",0.973663700001055,NA,"FALSE","FALSE",-0.101696199999992,1.13211469999999,-0.926047299999993
221604,1,38,1000,180,182,1,1,1,0,340.2548394,1.84,342.154550400001,343.847989800001,1.59160329999941,1,4.43,349.4081548,0,2021-05-17 20:54:22,"2-Feb-2021","pitt","new_learn",349.4784536,352.7440069,3.2,0,FALSE,"win",2.33585210000001,NA,"FALSE","FALSE",-0.101836100000578,1.13016499999895,-0.929701199999954
221604,1,39,1000,181,180,1,0,1,0,349.4784536,3.2,352.7440069,353.8096567,0.963995899999645,1,1.57,357.4527991,0,2021-05-17 20:54:22,"2-Feb-2021","pitt","new_learn",357.504913100001,360.0118605,2.22,0,FALSE,"win",1.55906140000002,NA,"FALSE","FALSE",-0.101653900000372,2.07314239999999,-0.947885999999016
221604,1,41,1000,181,182,0,0,1,0,368.836835300001,2.28,371.1593798,372.3884578,1.12677249999979,1,5.17,378.605444100001,0,2021-05-17 20:54:22,"2-Feb-2021","pitt","accrej",378.6900256,382.0564575,3.3,0,FALSE,"win",2.451013399999,NA,"FALSE","FALSE",-0.102305500000226,1.04698630000098,-0.91541850000101
221604,1,42,1000,182,180,0,0,-1,0,378.6900256,3.3,382.0564575,383.2047768,1.04571759999999,1,1.69,386.8665924,0,2021-05-17 20:54:22,"2-Feb-2021","pitt","accrej",386.951536,389.5555368,2.32,0,FALSE,"loss",1.68894440000003,NA,"FALSE","FALSE",-0.102601699999979,1.97181560000001,-0.915056400000026
221604,1,46,1000,180,182,0,1,0,0,418.262609500001,2.88,421.3245562,422.686024000001,1.25890479999998,1,3.21,426.9733871,0,2021-05-17 20:54:22,"2-Feb-2021","pitt","accrej",427.0517604,430.2157373,3.12,0,FALSE,"nothing",2.24235019999998,NA,"FALSE","FALSE",-0.102563000001,1.07736309999905,-0.921626700000047
221604,1,47,1000,182,181,0,1,1,0,427.0517604,3.12,430.2157373,431.2072737,0.888330499999938,1,4.89,437.2333423,0,2021-05-17 20:54:22,"2-Feb-2021","pitt","accrej",437.3112418,439.8462419,2.45,0,FALSE,"win",1.61289959999999,NA,"FALSE","FALSE",-0.103205900000035,1.13606860000004,-0.922100499999999
221604,1,48,1000,181,180,0,0,1,0,437.3112418,2.45,439.8462419,441.1185768,1.16983960000016,1,5.04,447.2933199,0,2021-05-17 20:54:22,"2-Feb-2021","pitt","accrej",447.3727081,449.6784205,1.76,0,FALSE,"win",1.38510060000004,NA,"FALSE","FALSE",-0.102495299999873,1.13474309999992,-0.920611799999961
221604,1,52,1000,180,181,0,1,1,0,484.9374475,2,487.1344327,488.5466598,1.30977640000037,1,5.14,494.7120291,0,2021-05-17 20:54:22,"2-Feb-2021","pitt","accrej",494.7919316,497.3628348,2.35,0,FALSE,"win",1.65080569999998,NA,"FALSE","FALSE",-0.102450699999626,1.02536930000002,-0.920097499999997
221604,1,59,1000,181,182,0,0,1,0,552.0483631,3.49,555.7131129,556.9323476,1.11700850000034,1,2.86,560.8515944,0,2021-05-17 20:54:22,"2-Feb-2021","pitt","accrej",560.9340529,563.0113044,1.8,0,FALSE,"win",1.15971000000002,NA,"FALSE","FALSE",-0.102226199999562,1.05924679999998,-0.91754149999997
221604,1,61,1000,181,180,1,0,1,0,569.2959517,1.76,571.1825338,572.064315000001,0.779731200000242,1,4.26,577.3739448,0,2021-05-17 20:54:22,"2-Feb-2021","pitt","new_learn",577.4525359,581.0932949,3.41,0,FALSE,"win",2.71935010000004,NA,"FALSE","FALSE",-0.102050000000759,1.04962979999902,-0.92140889999996
221604,1,64,1000,180,182,0,1,0,0,593.5364837,2.16,595.8503533,596.8180375,0.865812099999857,1,3.14,601.058287,0,2021-05-17 20:54:22,"2-Feb-2021","pitt","accrej",601.1443523,604.1551305,2.71,0,FALSE,"nothing",2.09684350000009,NA,"FALSE","FALSE",-0.101872100000037,1.10024950000002,-0.913934699999913
221604,1,66,1000,182,180,0,0,0,0,608.4707346,3.75,612.3615815,613.4983548,1.03461659999994,1,5.3,619.9124259,0,2021-05-17 20:54:22,"2-Feb-2021","pitt","accrej",619.992167,623.8017894,3.71,0,FALSE,"nothing",2.88936349999995,NA,"FALSE","FALSE",-0.102156700000019,1.11407110000005,-0.920258900000022
221604,1,67,1000,182,181,1,1,1,0,619.992167,3.71,623.8017894,624.6387319,0.734366499999851,1,2.05,628.2735622,0,2021-05-17 20:54:22,"2-Feb-2021","pitt","new_learn",628.3511346,630.6238323,2,0,FALSE,"win",1.35027009999999,NA,"FALSE","FALSE",-0.102576000000226,1.58483030000002,-0.922427599999992
221604,1,70,1000,180,181,0,1,1,0,649.5120205,2.22,651.8303991,652.7722922,0.839737299999797,1,1.21,656.4383756,656.4691865,2021-05-17 20:54:22,"2-Feb-2021","pitt","accrej",659.0318664,662.2326206,2.85,0,FALSE,"win",4.79424500000005,NA,"FALSE","FALSE",-0.102155800000219,2.4560833999999,-0.906509199999959
221604,1,72,1000,181,182,0,0,1,0,668.3548754,2.87,671.4137515,672.5436149,1.02743370000007,1,3.42,677.0579223,0,2021-05-17 20:54:22,"2-Feb-2021","pitt","accrej",677.1470192,679.7722561,2.55,0,FALSE,"win",1.71433380000008,NA,"FALSE","FALSE",-0.102429699999907,1.09430740000005,-0.910903099999928
221604,1,73,1000,180,181,1,1,-1,0,677.1470192,2.55,679.7722561,680.5810778,0.706946000000244,1,2.58,684.2531876,0,2021-05-17 20:54:22,"2-Feb-2021","pitt","new_learn",684.325009,688.6607299,4.29,0,FALSE,"loss",3.40754229999993,NA,"FALSE","FALSE",-0.101875699999709,1.0921098,-0.928178600000024
221604,1,74,1000,182,181,1,1,1,0,684.325009,4.29,688.6607299,689.3955488,0.632446500000697,1,1.74,693.0473841,0,2021-05-17 20:54:22,"2-Feb-2021","pitt","new_learn",693.1175885,697.6423426,3.77,0,FALSE,"win",3.59495849999996,NA,"FALSE","FALSE",-0.102372399999353,1.91183530000001,-0.929795600000034
221604,1,79,1000,181,180,1,0,1,0,733.4295235,4.38,738.0030447,739.0707288,0.965145799999846,1,1.23,742.6646739,0,2021-05-17 20:54:22,"2-Feb-2021","pitt","new_learn",742.7497692,746.6779343,3.11,0,FALSE,"win",3.01326039999992,NA,"FALSE","FALSE",-0.102538300000105,2.36394510000002,-0.914904700000079
221604,1,82,1000,180,182,0,1,0,0,761.3661988,2.79,764.3262001,765.4585038,1.02998299999945,1,4.59,771.1458108,0,2021-05-17 20:54:22,"2-Feb-2021","pitt","accrej",771.2271741,778.2067956,6.91,0,FALSE,"nothing",6.06098479999992,NA,"FALSE","FALSE",-0.102320700000516,1.097307,-0.918636700000093
221604,1,83,1000,181,182,0,0,0,0,771.2271741,6.91,778.2067956,779.1984461,0.889452899999924,1,1.85,782.8047091,0,2021-05-17 20:54:22,"2-Feb-2021","pitt","accrej",782.8529996,787.9223143,5,0,FALSE,"nothing",4.11760520000007,NA,"FALSE","FALSE",-0.102197600000068,1.75626299999999,-0.951709499999993
221604,2,1,1001,184,183,1,0,1,0,2.7042234999999,3.26,6.04594650000035,8.16391370000019,2.01613029999953,1,3.66,12.9430542,0,2021-05-17 20:54:22,"2-Feb-2021","pitt","new_learn",13.0337405999999,17.7912833,3.8,0,FALSE,"win",3.8482291,NA,"FALSE","FALSE",-0.10183690000031,1.11914049999981,-0.9093136000001
221604,2,4,1001,183,184,0,1,1,0,28.4720356999997,3.02,31.6338451000001,32.7870591000001,1.05120739999984,1,4.64,38.5594420999996,0,2021-05-17 20:54:22,"2-Feb-2021","pitt","accrej",38.6271600999999,43.7086793999997,4.98,0,FALSE,"win",4.1492373000001,NA,"FALSE","FALSE",-0.102006600000158,1.1323829999995,-0.932281999999702
221604,2,5,1001,185,183,0,0,1,0,38.6271600999999,4.98,43.7086793999997,44.8224763999997,1.01137970000036,1,4.14,50.0184723000002,0,2021-05-17 20:54:22,"2-Feb-2021","pitt","accrej",50.0659457000002,56.2506786000004,5.32,0,FALSE,"win",5.2322063000002,NA,"FALSE","FALSE",-0.102417299999638,1.0559959000005,-0.952526599999999
221604,2,8,1001,184,185,1,1,-1,0,70.8212934000003,2.75,73.7473252999998,75.6384403000002,1.78877009999997,0,2.33,79.2158146000002,0,2021-05-17 20:54:22,"2-Feb-2021","pitt","new_learn",79.314069,83.6124706999999,4.18,0,FALSE,"loss",3.3966560999997,NA,"FALSE","FALSE",-0.102344900000427,1.2473743,-0.901745600000197
221604,2,9,1001,185,184,1,1,1,0,79.314069,4.18,83.6124706999999,84.8097901000001,1.09556880000036,1,1.86,88.4097854000001,0,2021-05-17 20:54:22,"2-Feb-2021","pitt","new_learn",88.4940117999995,91.4095660000003,1.97,0,FALSE,"win",1.99978060000019,NA,"FALSE","FALSE",-0.101750599999837,1.7399953,-0.915773600000605
221604,2,12,1001,183,185,0,0,-1,0,111.9927811,1.91,114.0814263,115.4304538,1.24667700000009,0,2.91,119.4225056,0,2021-05-17 20:54:22,"2-Feb-2021","pitt","accrej",119.5071624,122.9279417,2.53,0,FALSE,"loss",2.50543610000001,NA,"FALSE","FALSE",-0.102350499999901,1.0820518,-0.915343199999995
221604,2,14,1001,185,183,1,1,1,0,127.3387033,2.95,130.392687,132.2377653,1.74334030000045,0,1.03,135.8451728,0,2021-05-17 20:54:22,"2-Feb-2021","pitt","new_learn",135.8913878,140.133136599999,3.31,0,FALSE,"win",3.28796379999901,NA,"FALSE","FALSE",-0.101737999999562,2.57740749999999,-0.953785000000011
221604,2,16,1001,184,183,0,0,1,0,145.5433887,2.3,148.0399732,149.0110508,0.869108100000631,1,2.76,152.8838702,0,2021-05-17 20:54:22,"2-Feb-2021","pitt","accrej",152.9328005,157.5978801,4.59,0,FALSE,"win",3.71400990000001,NA,"FALSE","FALSE",-0.10196949999937,1.11281940000001,-0.951069699999977
221604,2,17,1001,185,184,0,1,1,0,152.9328005,4.59,157.5978801,158.4946349,0.794239899999411,1,1.36,162.1776174,0,2021-05-17 20:54:22,"2-Feb-2021","pitt","accrej",162.2968947,164.3469543,2,0,FALSE,"win",1.16933689999999,NA,"FALSE","FALSE",-0.102514900000585,2.32298249999999,-0.880722700000007
221604,2,18,1001,183,185,0,0,0,0,162.2968947,2,164.3469543,165.2770857,0.828108799999427,0,4.76,171.1716384,0,2021-05-17 20:54:22,"2-Feb-2021","pitt","accrej",171.2445662,174.4420872,2.35,0,FALSE,"nothing",2.2704488,NA,"FALSE","FALSE",-0.102022600000566,1.13455270000003,-0.927072199999998
221604,2,20,1001,183,184,1,1,1,0,178.0295367,4.69,182.8694036,183.8285922,0.856681799999933,1,1.03,187.4775647,187.5340843,2021-05-17 20:54:22,"2-Feb-2021","pitt","new_learn",190.0956199,192.7225283,2.52,0,FALSE,"win",4.24496360000001,NA,"FALSE","FALSE",-0.102506800000072,2.61897249999998,-0.881944799999985
221604,2,21,1001,184,185,1,0,1,0,190.0956199,2.52,192.7225283,193.6683471,0.843562099999872,1,4.86,199.6362312,0,2021-05-17 20:54:22,"2-Feb-2021","pitt","new_learn",199.7223149,203.0686244,2.35,0,FALSE,"win",2.43239320000001,NA,"FALSE","FALSE",-0.10225670000014,1.10788409999998,-0.913916300000011
221604,2,23,1001,183,185,0,0,1,0,206.8129357,4.62,211.5750426,212.9309335,1.25323640000079,0,5.12,219.1232358,0,2021-05-17 20:54:22,"2-Feb-2021","pitt","accrej",219.2015671,221.9028016,1.81,0,FALSE,"win",1.7795658,NA,"FALSE","FALSE",-0.10265449999923,1.07230229999999,-0.921668699999998
221604,2,27,1001,183,184,1,1,0,0,246.6134363,2.64,249.4393777,250.6443231,1.10274780000054,1,1.14,254.2500246,0,2021-05-17 20:54:22,"2-Feb-2021","pitt","new_learn",254.330197,257.4431103,2.06,0,FALSE,"nothing",2.19308570000001,NA,"FALSE","FALSE",-0.102197599999474,2.46570149999999,-0.919827599999991
221604,2,30,1001,184,183,0,0,1,0,270.1053385,2.51,272.7327454,273.9107807,1.07636900000034,1,1.68,277.5511573,277.6064252,2021-05-17 20:54:22,"2-Feb-2021","pitt","accrej",280.1725484,282.925529,1.87,0,FALSE,"win",4.37437169999998,NA,"FALSE","FALSE",-0.101666299999636,1.96037660000002,-0.878608900000017
221604,2,33,1001,184,185,1,0,1,0,300.2608587,2.23,302.6792872,303.5741455,0.7930307000006,1,4.97,309.5967593,0,2021-05-17 20:54:22,"2-Feb-2021","pitt","new_learn",309.6812197,313.5762696,3.84,0,FALSE,"win",2.97951030000002,NA,"FALSE","FALSE",-0.10182759999941,1.05261379999996,-0.915539599999988
221604,2,34,1001,185,184,0,1,-1,0,309.6812197,3.84,313.5762696,314.364494,0.685827100000097,1,5.05,320.522791,0,2021-05-17 20:54:22,"2-Feb-2021","pitt","accrej",320.575045,322.6745032,1.97,0,FALSE,"loss",1.15171220000002,NA,"FALSE","FALSE",-0.102397299999893,1.10829699999999,-0.947745999999995
221604,2,35,1001,185,183,0,1,-1,0,320.575045,1.97,322.6745032,323.8940654,1.11759929999971,0,4.98,329.9166984,0,2021-05-17 20:54:22,"2-Feb-2021","pitt","accrej",329.9952052,333.0954001,2.3,0,FALSE,"loss",2.17870170000003,NA,"FALSE","FALSE",-0.101962900000274,1.04263299999997,-0.921493199999986
221604,2,38,1001,183,185,1,0,-1,0,345.7757322,1.84,347.7634642,348.7867134,0.920733899999505,0,2.23,352.3684689,0,2021-05-17 20:54:22,"2-Feb-2021","pitt","new_learn",352.4255579,354.950664,2.43,0,FALSE,"loss",1.58219510000004,NA,"FALSE","FALSE",-0.102515300000504,1.35175549999997,-0.942910999999981
221604,2,39,1001,184,183,1,0,1,0,352.4255579,2.43,354.950664,355.8535442,0.800465899999836,1,3.77,360.7297373,0,2021-05-17 20:54:22,"2-Feb-2021","pitt","new_learn",360.8094924,365.0960792,3.33,0,FALSE,"win",3.36634190000001,NA,"FALSE","FALSE",-0.102414300000134,1.10619310000004,-0.9202449
221604,2,41,1001,183,184,0,1,1,0,373.9139481,2.38,376.3464666,377.4887365,1.03971749999982,1,3.77,382.3153748,0,2021-05-17 20:54:22,"2-Feb-2021","pitt","accrej",382.3983456,389.0787019,5.87,0,FALSE,"win",5.76332710000003,NA,"FALSE","FALSE",-0.102552400000211,1.05663829999997,-0.917029199999945
221604,2,43,1001,184,185,1,1,-1,0,392.8758873,3.36,396.3581795,397.5937338,1.13292649999948,0,3.24,401.9022851,0,2021-05-17 20:54:22,"2-Feb-2021","pitt","new_learn",401.9567011,404.6297845,1.77,0,FALSE,"loss",1.72749940000006,NA,"FALSE","FALSE",-0.10262780000051,1.06855129999997,-0.945583999999997
221604,2,45,1001,185,184,1,1,1,0,411.4849128,1.87,413.5041755,414.3930703,0.786015300000145,1,2.69,418.1750385,0,2021-05-17 20:54:22,"2-Feb-2021","pitt","new_learn",418.2604781,420.9358259,1.78,0,FALSE,"win",1.76078739999997,NA,"FALSE","FALSE",-0.102879499999858,1.09196820000005,-0.914560400000028
221604,2,47,1001,185,183,0,0,-1,0,424.8219082,2.79,427.781788300001,429.4406504,1.55643659999987,1,0.95,433.114903399999,0,2021-05-17 20:54:22,"2-Feb-2021","pitt","accrej",433.202093899999,436.4187339,2.3,0,FALSE,"loss",2.30383050000103,NA,"FALSE","FALSE",-0.102425499999129,2.72425299999901,-0.91280949999998
221604,2,49,1001,183,185,1,0,-1,0,443.871956499999,3.03,447.0270194,448.2082037,1.07938869999998,0,3.48,452.8025364,0,2021-05-17 20:54:22,"2-Feb-2021","pitt","new_learn",452.8900151,456.098196200001,2.32,0,FALSE,"loss",2.29565980000098,NA,"FALSE","FALSE",-0.101795600000061,1.11433269999998,-0.91252129999998
221604,2,53,1001,183,184,0,1,0,0,483.1389638,7.49,490.749965700001,491.8911943,1.03754729999855,1,3.67,496.6230234,0,2021-05-17 20:54:22,"2-Feb-2021","pitt","accrej",496.7042083,500.164448899999,3.38,0,FALSE,"nothing",2.54142549999898,NA,"FALSE","FALSE",-0.10368130000046,1.06182910000001,-0.918815100000018
221604,2,54,1001,184,183,0,0,1,0,496.7042083,3.38,500.164448899999,501.1939062,0.926695200001632,1,3.31,505.6171428,0,2021-05-17 20:54:22,"2-Feb-2021","pitt","accrej",505.6890351,508.117723900001,2.36,0,FALSE,"win",1.500581100001,NA,"FALSE","FALSE",-0.102762099999381,1.11323659999999,-0.928107699999998
221604,2,55,1001,185,184,1,1,1,0,505.6890351,2.36,508.117723900001,509.249865100001,1.02951099999882,1,0.75,512.895484500001,0,2021-05-17 20:54:22,"2-Feb-2021","pitt","new_learn",512.977593199999,516.042919899999,3.01,0,FALSE,"win",2.14743539999802,NA,"FALSE","FALSE",-0.102630200001158,2.89561939999999,-0.917891300001997
221604,2,56,1001,185,183,1,1,-1,0,512.977593199999,3.01,516.042919899999,517.6749005,1.52824880000117,0,3.09,521.8233299,0,2021-05-17 20:54:22,"2-Feb-2021","pitt","new_learn",521.8761715,526.7762535,3.96,0,FALSE,"loss",3.95292360000008,NA,"FALSE","FALSE",-0.103731799999873,1.05842939999991,-0.947158399999921
221604,2,58,1001,184,185,0,0,1,0,531.929927699999,8.03,540.0769841,541.021340200001,0.842105899999297,1,0.88,544.674410699999,0,2021-05-17 20:54:22,"2-Feb-2021","pitt","accrej",544.730973600001,547.5531173,2.5,0,FALSE,"win",1.87870660000101,NA,"FALSE","FALSE",-0.102250200001663,2.77307049999808,-0.94343709999805
221604,2,61,1001,185,183,1,0,1,0,566.4213707,4.71,571.190965399999,572.317360700001,1.02419750000081,1,2.23,576.003835400001,0,2021-05-17 20:54:22,"2-Feb-2021","pitt","new_learn",576.076730700001,583.354896000001,7.18,0,FALSE,"win",6.35106059999998,NA,"FALSE","FALSE",-0.102197800001249,1.45647469999994,-0.927104699999973
221604,2,62,1001,185,184,1,1,1,0,576.076730700001,7.18,583.354896000001,584.670356299999,1.21325459999935,1,1.6,588.2622813,0,2021-05-17 20:54:22,"2-Feb-2021","pitt","new_learn",588.3397828,592.5753804,4.15,0,FALSE,"win",3.31309909999993,NA,"FALSE","FALSE",-0.102205699998644,1.99192500000106,-0.922498500000074
221604,2,63,1001,183,184,1,1,1,0,588.3397828,4.15,592.5753804,593.744472599999,1.06689759999972,1,1.24,597.389481599999,0,2021-05-17 20:54:22,"2-Feb-2021","pitt","new_learn",597.4344366,601.041536700001,3.25,0,FALSE,"win",2.65205510000192,NA,"FALSE","FALSE",-0.10219459999928,2.40500900000006,-0.955044999999018
221604,2,67,1001,183,185,1,1,1,0,625.4800559,1.76,627.3689452,628.739956400001,1.26725819999956,1,4.4,634.2152809,0,2021-05-17 20:54:22,"2-Feb-2021","pitt","new_learn",634.2627854,637.7616497,3.45,0,FALSE,"win",2.54636879999998,NA,"FALSE","FALSE",-0.103753000001461,1.07532449999906,-0.952495500000055
221604,2,68,1001,184,183,1,0,1,0,634.2627854,3.45,637.7616497,638.6894254,0.825644599999578,1,1.97,642.343204299999,0,2021-05-17 20:54:22,"2-Feb-2021","pitt","new_learn",642.413604400001,645.072774,1.78,0,FALSE,"win",1.72956970000098,NA,"FALSE","FALSE",-0.102131100000406,1.68377889999897,-0.929599899998038
221604,2,74,1001,184,185,1,0,1,0,686.8692132,4.54,691.604227399999,692.5836069,0.878002200000992,1,2.34,696.207571999999,0,2021-05-17 20:54:22,"2-Feb-2021","pitt","new_learn",696.3092339,699.4567678,3.08,0,FALSE,"win",2.24919580000096,NA,"FALSE","FALSE",-0.101377299999967,1.28396509999902,-0.898338099999023
221604,2,75,1001,185,183,1,1,-1,0,696.3092339,3.08,699.4567678,700.2378555,0.679599900000539,0,1.02,703.8357392,0,2021-05-17 20:54:22,"2-Feb-2021","pitt","new_learn",703.931992899999,707.042924199999,1.97,0,FALSE,"loss",2.20718499999896,NA,"FALSE","FALSE",-0.101487799999518,2.57788370000003,-0.903746300000989
221604,2,77,1001,183,185,0,1,-1,0,712.803240499999,2.95,715.862602699999,717.0034094,1.03969570000118,1,5.25,723.3229424,0,2021-05-17 20:54:22,"2-Feb-2021","pitt","accrej",723.395058,725.6944939,2.23,0,FALSE,"loss",1.37155150000001,NA,"FALSE","FALSE",-0.101110999999828,1.06953299999998,-0.927884400000039
221604,2,78,1001,185,184,0,1,1,0,723.395058,2.23,725.6944939,726.474394999999,0.677859899999021,1,2.52,730.101720299999,0,2021-05-17 20:54:22,"2-Feb-2021","pitt","accrej",730.141578000001,733.1085129,2.83,0,FALSE,"win",2.00679260000106,NA,"FALSE","FALSE",-0.10204120000003,1.10732529999996,-0.960142299997983
221604,2,79,1001,183,184,1,1,0,0,730.141578000001,2.83,733.1085129,733.904856699999,0.694879700000456,1,4.32,739.2957205,0,2021-05-17 20:54:22,"2-Feb-2021","pitt","new_learn",739.373281300001,743.7079942,3.96,0,FALSE,"nothing",3.41227370000001,NA,"FALSE","FALSE",-0.101464099998452,1.07086380000101,-0.922439199998962
221604,2,82,1001,184,185,0,0,1,0,759.9943465,1.81,761.9865078,762.9009795,0.812878299999284,1,4.03,767.976631400001,0,2021-05-17 20:54:22,"2-Feb-2021","pitt","accrej",768.0509045,771.475590599999,2.59,0,FALSE,"win",2.49895919999801,NA,"FALSE","FALSE",-0.101593400000638,1.04565190000108,-0.925726900000996
221604,3,1,1002,187,186,1,0,1,0,2.65459310000006,2.36,5.22101380000095,6.91958049999994,1.59693390000029,1,4.26,12.206705300001,0,2021-05-17 20:54:22,"2-Feb-2021","pitt","new_learn",12.2897352,14.7271498000009,2.35,0,FALSE,"win",1.5204444999999,NA,"FALSE","FALSE",-0.1016327999987,1.02712480000106,-0.916970100000999
221604,3,2,1002,186,188,1,0,-1,0,12.2897352,2.35,14.7271498000009,15.9387282000007,1.11070139999902,0,0.79,19.5351284000008,0,2021-05-17 20:54:22,"2-Feb-2021","pitt","new_learn",19.5775764000009,22.4278083999998,1.81,0,FALSE,"loss",1.892679999999,NA,"FALSE","FALSE",-0.10087700000078,2.8064002000001,-0.9575519999999
221604,3,4,1002,188,186,0,1,-1,0,27.5309973000003,3.6,31.3282326999997,32.4219537000008,0.991685200000575,0,1.85,36.0408657999997,0,2021-05-17 20:54:22,"2-Feb-2021","pitt","accrej",36.1088005000001,40.8778356000003,4.41,0,FALSE,"loss",3.8369698000006,NA,"FALSE","FALSE",-0.102035800000525,1.7689120999989,-0.9320652999996
221604,3,6,1002,186,187,0,1,1,0,47.1165729000004,2.58,49.8479908000008,50.9990543000004,1.04888779999965,1,3.36,55.4946773000011,0,2021-05-17 20:54:22,"2-Feb-2021","pitt","accrej",55.5693050999998,59.1693656000007,3.52,0,FALSE,"win",2.6746882999996,NA,"FALSE","FALSE",-0.102175699999951,1.1356230000007,-0.925372200001298
221604,3,7,1002,187,188,1,1,0,0,55.5693050999998,3.52,59.1693656000007,60.0896068000002,0.818558299999495,0,2.42,63.7391924000003,0,2021-05-17 20:54:22,"2-Feb-2021","pitt","new_learn",63.8452746000003,66.9279454000007,2.06,0,FALSE,"nothing",2.1887530000004,NA,"FALSE","FALSE",-0.1016829,1.2295856000001,-0.89391779999999
221604,3,9,1002,188,187,1,0,1,0,71.0170865,3.94,75.1462807999997,76.3339962000009,1.08646890000091,0,1.77,79.9618941999997,0,2021-05-17 20:54:22,"2-Feb-2021","pitt","new_learn",80.0226351000001,85.3079342000001,5.24,0,FALSE,"win",4.3460400000004,NA,"FALSE","FALSE",-0.101246500000286,1.85789799999881,-0.939259099999603
221604,3,10,1002,186,187,0,1,1,0,80.0226351000001,5.24,85.3079342000001,86.4043684999997,0.995032300001185,1,4.92,92.4203260000013,92.4814907,2021-05-17 20:54:22,"2-Feb-2021","pitt","accrej",95.065978300001,96.9384583999999,1.78,0,FALSE,"win",3.51813239999861,NA,"FALSE","FALSE",-0.101401999998416,1.09595750000159,-0.854347700000289
221604,3,11,1002,187,186,0,0,1,0,95.065978300001,1.78,96.9384583999999,97.9868979000003,0.946427799999583,1,4.91,103.9792923,0,2021-05-17 20:54:22,"2-Feb-2021","pitt","accrej",104.033191,108.265376400001,4.18,0,FALSE,"win",3.28608410000101,NA,"FALSE","FALSE",-0.102011700000815,1.0823943999997,-0.946101299999995
221604,3,12,1002,188,186,0,0,0,0,104.033191,4.18,108.265376400001,109.6314965,1.26454509999894,1,3.03,113.706296300001,0,2021-05-17 20:54:22,"2-Feb-2021","pitt","accrej",113.789977600001,117.3211808,2.3,0,FALSE,"nothing",2.61488449999899,NA,"FALSE","FALSE",-0.101575000000054,1.044799800001,-0.916318700000005
221604,3,15,1002,188,187,1,0,0,0,131.9741239,2.08,134.199043500001,135.146391100001,0.844920300000013,0,0.79,138.772965300001,0,2021-05-17 20:54:22,"2-Feb-2021","pitt","new_learn",138.8562179,142.1217891,3.13,0,FALSE,"nothing",2.348823799999,NA,"FALSE","FALSE",-0.102427299999988,2.8365742,-0.916747400001015
221604,3,16,1002,187,188,0,0,-1,0,138.8562179,3.13,142.1217891,143.3704387,1.14510790000168,1,5.21,149.7156275,0,2021-05-17 20:54:22,"2-Feb-2021","pitt","accrej",149.751985700001,151.9833846,2.11,0,FALSE,"loss",1.26775709999998,NA,"FALSE","FALSE",-0.103541699998313,1.13518880000001,-0.96364179999901
221604,3,17,1002,186,188,0,1,0,0,149.751985700001,2.11,151.9833846,153.0112756,0.926601200000732,1,2.71,156.7943908,0,2021-05-17 20:54:22,"2-Feb-2021","pitt","accrej",156.8575143,163.076910900001,6.12,0,FALSE,"nothing",5.28252010000099,NA,"FALSE","FALSE",-0.101289799999279,1.07311519999999,-0.936876500000011
221604,3,18,1002,188,187,0,1,0,0,156.8575143,6.12,163.076910900001,164.1404833,0.960960200000045,1,1.2,167.7870097,0,2021-05-17 20:54:22,"2-Feb-2021","pitt","accrej",167.887963900001,170.330480800001,1.84,0,FALSE,"nothing",1.543471100001,NA,"FALSE","FALSE",-0.102612199998958,2.44652640000001,-0.899045799998987
221604,3,20,1002,187,186,1,0,1,0,177.418799000001,6.9,184.4686619,185.5233818,0.952672800000073,1,4.3,190.955069,191.008273200001,2021-05-17 20:54:22,"2-Feb-2021","pitt","new_learn",193.5885788,195.567251800001,1.84,0,FALSE,"win",3.61218280000099,NA,"FALSE","FALSE",-0.102047099999936,1.13168719999999,-0.866490200000015
221604,3,21,1002,186,188,1,1,-1,0,193.5885788,1.84,195.567251800001,196.590352500001,0.921758099999352,1,4.15,201.781275400001,0,2021-05-17 20:54:22,"2-Feb-2021","pitt","new_learn",201.8216161,205.2051858,2.35,0,FALSE,"loss",2.42391039999902,NA,"FALSE","FALSE",-0.101342600000634,1.0409229,-0.959659300000993
221604,3,28,1002,188,186,0,0,0,0,261.548304400001,3.5,265.2121272,267.0547004,1.74069170000075,1,3.29,271.401931800001,0,2021-05-17 20:54:22,"2-Feb-2021","pitt","accrej",271.479473200001,273.4677123,1.85,0,FALSE,"nothing",1.06578049999899,NA,"FALSE","FALSE",-0.101881499999254,1.057231400001,-0.922458600000027
221604,3,29,1002,187,188,0,0,1,0,271.479473200001,1.85,273.4677123,274.9061674,1.33605290000014,1,2.97,278.9135336,0,2021-05-17 20:54:22,"2-Feb-2021","pitt","accrej",279.0139714,282.1112075,2.69,0,FALSE,"win",2.19767389999998,NA,"FALSE","FALSE",-0.102402199999859,1.03736619999995,-0.899562199999991
221604,3,33,1002,186,187,1,1,1,0,311.3808095,7.74,319.2919341,320.3543852,0.960022000001118,1,1.88,324.000393300001,0,2021-05-17 20:54:22,"2-Feb-2021","pitt","new_learn",324.075841600001,326.8116092,2.45,0,FALSE,"win",1.81121589999901,NA,"FALSE","FALSE",-0.102429099998914,1.76600810000099,-0.924551699999995
221604,3,36,1002,187,186,0,0,1,0,346.856981000001,2.33,349.3648651,350.8811922,1.41412010000022,1,1.09,354.4801106,0,2021-05-17 20:54:22,"2-Feb-2021","pitt","accrej",354.553961200001,356.4511853,1.83,0,FALSE,"win",0.971074700000031,NA,"FALSE","FALSE",-0.102206999999792,2.50891840000003,-0.926149399998963
221604,3,37,1002,188,187,1,1,-1,0,354.553961200001,1.83,356.4511853,358.016968,1.46478860000025,1,1.19,361.658840800001,0,2021-05-17 20:54:22,"2-Feb-2021","pitt","new_learn",361.7420387,365.279343100001,3.29,0,FALSE,"loss",2.6205023,NA,"FALSE","FALSE",-0.10099409999975,2.45187280000096,-0.91680210000095
221604,3,40,1002,187,188,0,0,1,0,379.087905800001,2.31,381.5176293,382.4391452,0.820485800000824,1,2.64,386.1258622,386.186405500001,2021-05-17 20:54:22,"2-Feb-2021","pitt","accrej",388.7463329,393.8701024,4.84,0,FALSE,"win",6.74424020000004,NA,"FALSE","FALSE",-0.10103009999915,1.046717,-0.879529299999945
221604,3,43,1002,186,187,1,1,1,0,405.5598242,1.93,407.6538636,408.507215600001,0.75228210000023,1,3.58,413.2080718,0,2021-05-17 20:54:22,"2-Feb-2021","pitt","new_learn",413.2980295,415.608098000001,2.25,0,FALSE,"win",1.40002620000098,NA,"FALSE","FALSE",-0.101069900000766,1.12085619999903,-0.910042300000043
221604,3,44,1002,188,186,1,0,0,0,413.2980295,2.25,415.608098000001,416.6734364,0.962867300000653,1,1.01,420.3200039,0,2021-05-17 20:54:22,"2-Feb-2021","pitt","new_learn",420.363344000001,423.961064000001,3.53,0,FALSE,"nothing",2.64106010000097,NA,"FALSE","FALSE",-0.102471099998354,2.63656750000001,-0.956659899999011
221604,3,45,1002,186,188,1,1,1,0,420.363344000001,3.53,423.961064000001,424.6319836,0.56896450000022,1,1.64,428.2314047,0,2021-05-17 20:54:22,"2-Feb-2021","pitt","new_learn",428.338375400001,431.356959000001,2.73,0,FALSE,"win",2.125554300001,NA,"FALSE","FALSE",-0.101955099998804,1.95942109999999,-0.893029299999
221604,3,47,1002,187,188,0,0,1,0,437.4095894,1.86,439.405363100001,440.4251076,0.918707799999538,1,1.74,444.0209638,0,2021-05-17 20:54:22,"2-Feb-2021","pitt","accrej",444.112003800001,448.3799915,3.99,0,FALSE,"win",3.35902770000001,NA,"FALSE","FALSE",-0.10103669999944,1.85585620000001,-0.908959999999013
221604,3,49,1002,186,188,1,1,1,0,453.088812600001,4.13,457.4178226,458.279266900001,0.76023720000012,1,1.08,461.8924929,0,2021-05-17 20:54:22,"2-Feb-2021","pitt","new_learn",461.9947598,467.0176993,4.74,0,FALSE,"win",4.12520640000002,NA,"FALSE","FALSE",-0.101207100000863,2.53322599999899,-0.897733099999982
221604,3,51,1002,186,187,1,1,1,0,475.612689400001,1.88,477.6023367,478.5863465,0.882678200001465,1,3.83,483.4782225,0,2021-05-17 20:54:22,"2-Feb-2021","pitt","new_learn",483.5597392,486.913664400001,3.05,0,FALSE,"win",2.43544190000097,NA,"FALSE","FALSE",-0.101331599998502,1.06187600000004,-0.918483299999991
221604,3,55,1002,188,186,1,0,-1,0,508.1379063,3.97,512.235475000001,513.1778739,0.840537299998687,1,2.17,516.8395062,0,2021-05-17 20:54:22,"2-Feb-2021","pitt","new_learn",516.8877135,518.912021600001,1.89,0,FALSE,"loss",1.07251540000107,NA,"FALSE","FALSE",-0.101861600000347,1.49163229999999,-0.951792699999942
221604,3,56,1002,188,187,1,1,1,0,516.8877135,1.89,518.912021600001,520.272536600001,1.25883099999919,1,5.21,526.566421,0,2021-05-17 20:54:22,"2-Feb-2021","pitt","new_learn",526.6427129,528.640456700001,1.89,0,FALSE,"win",1.07403570000099,NA,"FALSE","FALSE",-0.101684000000774,1.08388439999896,-0.923708099999999
221604,3,57,1002,187,186,1,0,1,0,526.6427129,1.89,528.640456700001,529.5842352,0.84159770000042,1,4.81,535.4608432,0,2021-05-17 20:54:22,"2-Feb-2021","pitt","new_learn",535.531902000001,538.0627221,2.48,0,FALSE,"win",1.60187889999997,NA,"FALSE","FALSE",-0.102180799998564,1.06660800000009,-0.928941199999031
221604,3,58,1002,188,187,0,1,1,0,535.531902000001,2.48,538.0627221,539.064698600001,0.900363600001583,1,4.55,544.6709938,0,2021-05-17 20:54:22,"2-Feb-2021","pitt","accrej",544.7433585,547.125956,2.14,0,FALSE,"win",1.45496219999995,NA,"FALSE","FALSE",-0.101612899999395,1.05629519999911,-0.92763530000002
221604,3,62,1002,186,188,1,1,-1,0,572.035409600001,8.2,580.3818249,581.2745094,0.791149900000164,1,4.36,586.693196,0,2021-05-17 20:54:22,"2-Feb-2021","pitt","new_learn",586.734880800001,588.8648677,2.05,0,FALSE,"loss",1.17167170000005,NA,"FALSE","FALSE",-0.101534599999923,1.05868659999987,-0.958315199998992
221604,3,63,1002,187,186,1,0,1,0,586.734880800001,2.05,588.8648677,589.9935539,1.02717510000002,1,1.7,593.572201200001,0,2021-05-17 20:54:22,"2-Feb-2021","pitt","new_learn",593.6199309,595.9141643,2.02,0,FALSE,"win",1.34196309999902,NA,"FALSE","FALSE",-0.101511100000041,1.87864730000092,-0.952270300001032
221604,3,65,1002,187,188,0,0,1,0,599.789895100001,2.28,602.200153600001,603.108679700001,0.806864099999075,1,2.73,606.9131519,0,2021-05-17 20:54:22,"2-Feb-2021","pitt","accrej",606.952817200001,610.4137532,3.16,0,FALSE,"win",2.50060129999997,NA,"FALSE","FALSE",-0.101662000000829,1.07447219999904,-0.960334699998953
221604,3,68,1002,186,187,1,1,1,0,619.3548921,1.99,621.447812500001,622.2221916,0.672262300000511,1,4.12,627.433003400001,0,2021-05-17 20:54:22,"2-Feb-2021","pitt","new_learn",627.526736100001,631.1785769,3.56,0,FALSE,"win",2.74557349999907,NA,"FALSE","FALSE",-0.102116799998499,1.09081180000101,-0.906267299999968
221604,3,69,1002,188,186,1,0,0,0,627.526736100001,3.56,631.1785769,631.993772900001,0.713626300001124,1,4.8,637.892716300001,0,2021-05-17 20:54:22,"2-Feb-2021","pitt","new_learn",637.989711300001,640.8787694,2.66,0,FALSE,"nothing",1.98605309999903,NA,"FALSE","FALSE",-0.1015696999998,1.09894340000005,-0.903005000000007
221604,3,75,1002,186,188,1,1,0,0,680.720724300001,2.03,682.944466200001,683.691214800001,0.645451300000786,1,1.45,687.3266769,0,2021-05-17 20:54:22,"2-Feb-2021","pitt","new_learn",687.4190512,689.3926821,1.84,0,FALSE,"nothing",1.06600519999995,NA,"FALSE","FALSE",-0.10129729999926,2.18546209999897,-0.90762570000004
221604,3,76,1002,187,188,0,0,1,0,687.4190512,1.84,689.3926821,690.424133100001,0.928939100000207,1,4.23,695.771039400001,0,2021-05-17 20:54:22,"2-Feb-2021","pitt","accrej",695.854964400001,699.2382932,3.09,0,FALSE,"win",2.46725379999907,NA,"FALSE","FALSE",-0.102511900000763,1.11690629999998,-0.916074999999978
221604,3,80,1002,188,186,1,0,0,0,725.405238400001,4.25,729.8469652,730.576872900001,0.628246300000683,1,3.27,734.945141600001,735.0040735,2021-05-17 20:54:22,"2-Feb-2021","pitt","new_learn",737.566337,739.759122000001,2.07,0,FALSE,"nothing",3.81398039999999,NA,"FALSE","FALSE",-0.101661400000353,1.09826869999995,-0.87880460000099
221604,3,81,1002,186,187,1,1,1,0,737.566337,2.07,739.759122000001,740.588155900001,0.726963999999498,1,4.99,746.6040641,0,2021-05-17 20:54:22,"2-Feb-2021","pitt","new_learn",746.6779802,749.7201644,2.96,0,FALSE,"win",2.11610030000008,NA,"FALSE","FALSE",-0.102069900000515,1.02590819999898,-0.926083899999981
221604,3,82,1002,187,186,0,0,1,0,746.6779802,2.96,749.7201644,750.7515148,0.929943099999946,1,1.29,754.432268100001,0,2021-05-17 20:54:22,"2-Feb-2021","pitt","accrej",754.5170898,756.5024928,1.86,0,FALSE,"win",1.07022469999902,NA,"FALSE","FALSE",-0.101407300000005,2.39075330000105,-0.915178300001003
221604,3,83,1002,188,187,0,1,1,0,754.5170898,1.86,756.5024928,757.2674506,0.66358129999935,1,4.71,763.093158200001,0,2021-05-17 20:54:22,"2-Feb-2021","pitt","accrej",763.1659088,768.405310300001,5,0,FALSE,"win",4.31215210000005,NA,"FALSE","FALSE",-0.101376500000584,1.11570760000097,-0.92724940000096
221604,4,3,1003,190,189,1,0,1,0,17.4924811000001,3.26,20.8522110000013,22.3545785999995,1.40076659999977,1,4.91,28.3815642999998,0,2021-05-17 20:54:22,"2-Feb-2021","pitt","new_learn",28.4860539000001,31.7479769000001,3.14,0,FALSE,"win",2.3664126000003,NA,"FALSE","FALSE",-0.101600999998428,1.1169857000003,-0.895510399999697
221604,4,4,1003,191,189,0,0,-1,0,28.4860539000001,3.14,31.7479769000001,33.0008570999998,1.15090360000067,1,4.46,38.5748727999999,0,2021-05-17 20:54:22,"2-Feb-2021","pitt","accrej",38.6482625000008,41.7912949000001,3.02,0,FALSE,"loss",2.2164221000002,NA,"FALSE","FALSE",-0.101976599999028,1.1140157000001,-0.926610299999105
221604,4,5,1003,189,191,0,0,0,0,38.6482625000008,3.02,41.7912949000001,43.547889200001,1.65564629999972,0,3.17,47.7687440999998,0,2021-05-17 20:54:22,"2-Feb-2021","pitt","accrej",47.8774642999997,50.8661542000009,2.67,0,FALSE,"nothing",2.0974101000011,NA,"FALSE","FALSE",-0.100948000001179,1.0508548999988,-0.891279800000099
221604,4,8,1003,190,191,1,0,0,0,66.1716121000009,1.97,68.2610068000013,69.0844049000007,0.721902199999022,1,5.13,75.2838286999995,0,2021-05-17 20:54:22,"2-Feb-2021","pitt","new_learn",75.3565340000005,78.7652916999996,2.67,0,FALSE,"nothing",2.48146300000009,NA,"FALSE","FALSE",-0.101495900000387,1.0694237999988,-0.92729469999901
221604,4,11,1003,189,190,0,1,1,0,94.3073913000007,4.7,99.0511347000011,99.8580414000007,0.704690999999002,1,2.66,103.5485489,0,2021-05-17 20:54:22,"2-Feb-2021","pitt","accrej",103.6534171,105.6214783,1.86,0,FALSE,"win",1.07292940000001,NA,"FALSE","FALSE",-0.102215700000599,1.0305074999993,-0.895131800000001
221604,4,12,1003,191,190,0,1,1,0,103.6534171,1.86,105.6214783,106.3773229,0.654382100001385,1,4.89,112.3427027,0,2021-05-17 20:54:22,"2-Feb-2021","pitt","accrej",112.389906300001,118.438313800001,5.96,0,FALSE,"win",5.09561110000099,NA,"FALSE","FALSE",-0.101462499998604,1.07537980000001,-0.952796399999002
221604,4,13,1003,190,189,1,0,1,0,112.389906300001,5.96,118.438313800001,119.533310300001,0.993654399999286,1,3.7,124.301444300001,0,2021-05-17 20:54:22,"2-Feb-2021","pitt","new_learn",124.3530531,129.1023425,4.35,0,FALSE,"win",3.800898199999,NA,"FALSE","FALSE",-0.101342100000722,1.06813399999999,-0.948391200000998
221604,4,18,1003,189,190,0,1,1,0,158.770555000001,2.84,161.807423600001,162.5371259,0.628454899999269,1,1.54,166.223679500001,0,2021-05-17 20:54:22,"2-Feb-2021","pitt","accrej",166.282904900001,168.845578800001,2.28,0,FALSE,"win",1.6218993,NA,"FALSE","FALSE",-0.10124739999975,2.146553600001,-0.940774599999997
221604,4,20,1003,191,189,1,0,1,0,174.340526400001,3.74,178.217621,179.682303200001,1.36239970000133,1,3.34,184.095206800001,184.125414399999,2021-05-17 20:54:22,"2-Feb-2021","pitt","new_learn",186.6859248,188.812501100001,2.04,0,FALSE,"win",3.71729429999999,NA,"FALSE","FALSE",-0.102282499999663,1.07290359999999,-0.909282000000985
221604,4,21,1003,191,190,1,1,1,0,186.6859248,2.04,188.812501100001,189.6903415,0.776543099998889,1,1.11,193.288975200001,0,2021-05-17 20:54:22,"2-Feb-2021","pitt","new_learn",193.3667117,196.5305673,3.06,0,FALSE,"win",2.241592099999,NA,"FALSE","FALSE",-0.101297300000113,2.488633700001,-0.922263500001009
221604,4,22,1003,189,191,0,1,-1,0,193.3667117,3.06,196.5305673,197.554082500001,0.922484099999565,1,1.02,201.1339369,0,2021-05-17 20:54:22,"2-Feb-2021","pitt","accrej",201.2099736,204.251684500001,2.99,0,FALSE,"loss",2.117747600001,NA,"FALSE","FALSE",-0.101031100001421,2.55985439999901,-0.923963299999997
221604,4,23,1003,190,191,0,0,1,0,201.2099736,2.99,204.251684500001,205.1395214,0.786346999999296,1,1.58,208.762240800001,0,2021-05-17 20:54:22,"2-Feb-2021","pitt","accrej",208.8310133,211.3362044,2.43,0,FALSE,"win",1.57396359999902,NA,"FALSE","FALSE",-0.101489899999706,2.04271940000098,-0.931227500001
221604,4,24,1003,191,190,0,1,-1,0,208.8310133,2.43,211.3362044,211.9669001,0.528754599999957,1,4.19,217.2233469,0,2021-05-17 20:54:22,"2-Feb-2021","pitt","accrej",217.2994691,220.297618800001,2.77,0,FALSE,"loss",2.07427190000101,NA,"FALSE","FALSE",-0.101941100000033,1.06644679999999,-0.923877799999985
221604,4,26,1003,189,190,1,1,1,0,224.173091800001,1.76,226.0417165,226.7351915,0.59129109999958,1,0.95,230.347952300001,0,2021-05-17 20:54:22,"2-Feb-2021","pitt","new_learn",230.4198615,232.9282747,2.42,0,FALSE,"win",1.58032239999901,NA,"FALSE","FALSE",-0.102183900000427,2.662760800001,-0.928090800001002
221604,4,27,1003,191,189,1,0,1,0,230.4198615,2.42,232.9282747,233.917772500001,0.887772400001268,1,1.03,237.543200300001,0,2021-05-17 20:54:22,"2-Feb-2021","pitt","new_learn",237.6158203,240.3040017,2.39,0,FALSE,"win",1.760801399999,NA,"FALSE","FALSE",-0.101725399999736,2.59542779999998,-0.927380000000994
221604,4,29,1003,190,189,0,0,-1,0,247.1478417,5.18,252.5197438,253.3702423,0.748324600001069,1,2.3,257.013604900001,0,2021-05-17 20:54:22,"2-Feb-2021","pitt","accrej",257.0882833,261.485052,4.15,0,FALSE,"loss",3.47144709999901,NA,"FALSE","FALSE",-0.102173899998946,1.34336260000097,-0.925321600000984
221604,4,37,1003,189,191,1,1,1,0,326.216844800001,2.11,328.414068400001,329.4844975,0.967803099998491,1,1.81,333.0966852,0,2021-05-17 20:54:22,"2-Feb-2021","pitt","new_learn",333.172852400001,336.0023958,2.7,0,FALSE,"win",1.90571059999996,NA,"FALSE","FALSE",-0.102626000000498,1.80218770000005,-0.923832799999047
221604,4,38,1003,190,191,1,0,1,0,333.172852400001,2.7,336.0023958,336.7748964,0.66951169999993,1,1.09,340.4085426,0,2021-05-17 20:54:22,"2-Feb-2021","pitt","new_learn",340.517672800001,344.5452047,3.69,0,FALSE,"win",3.13666210000002,NA,"FALSE","FALSE",-0.102988900000071,2.54364620000001,-0.890869799998995
221604,4,44,1003,190,191,1,0,1,0,386.103817200001,2.53,388.7400201,389.908464800001,1.06591730000036,1,1.29,393.5567185,0,2021-05-17 20:54:22,"2-Feb-2021","pitt","new_learn",393.598382300001,396.128450300001,2.46,0,FALSE,"win",1.57173180000103,NA,"FALSE","FALSE",-0.102527400000672,2.35825369999895,-0.958336199998996
221604,4,45,1003,190,189,1,0,1,0,393.598382300001,2.46,396.128450300001,397.0305579,0.799549100000149,1,5.13,403.283735000001,0,2021-05-17 20:54:22,"2-Feb-2021","pitt","new_learn",403.3553775,408.9328897,5.5,0,FALSE,"win",4.64915469999897,NA,"FALSE","FALSE",-0.10255849999885,1.12317710000099,-0.928357500001027
221604,4,46,1003,189,191,0,1,-1,0,403.3553775,5.5,408.9328897,410.557366000001,1.52203560000089,1,2.83,414.5095403,0,2021-05-17 20:54:22,"2-Feb-2021","pitt","accrej",414.574086099999,419.1598932,3.78,0,FALSE,"loss",3.65035289999997,NA,"FALSE","FALSE",-0.102440700000159,1.12217429999902,-0.935454200001004
221604,4,49,1003,189,190,1,1,-1,0,432.1528387,1.86,434.1223013,434.792398,0.568865500001266,1,5.09,440.941984500001,0,2021-05-17 20:54:22,"2-Feb-2021","pitt","new_learn",441.0389727,443.2132533,2.09,0,FALSE,"loss",1.27126879999901,NA,"FALSE","FALSE",-0.101231199998722,1.05958650000105,-0.903011800001025
221604,4,50,1003,191,189,1,0,1,0,441.0389727,2.09,443.2132533,444.137405200001,0.822867799999585,1,3.94,449.1865325,449.2553885,2021-05-17 20:54:22,"2-Feb-2021","pitt","new_learn",451.8201551,453.8103235,1.92,0,FALSE,"win",3.62379099999998,NA,"FALSE","FALSE",-0.101284100001408,1.10912729999899,-0.866377399999976
221604,4,51,1003,191,190,1,1,-1,0,451.8201551,1.92,453.8103235,454.4923065,0.580638900000849,1,0.87,458.080640300001,0,2021-05-17 20:54:22,"2-Feb-2021","pitt","new_learn",458.1664499,460.060744500001,1.82,0,FALSE,"loss",0.980104200000028,NA,"FALSE","FALSE",-0.101344099999154,2.71833380000101,-0.914190400001019
221604,4,52,1003,191,190,0,1,1,0,458.1664499,1.82,460.060744500001,460.857755500001,0.695230400000582,1,4.42,466.341770000001,0,2021-05-17 20:54:22,"2-Feb-2021","pitt","accrej",466.4249353,469.47651,2.52,0,FALSE,"win",2.134739999999,NA,"FALSE","FALSE",-0.101780599999416,1.06401449999998,-0.916834700001004
221604,4,54,1003,189,191,0,1,-1,0,474.686944999999,4.76,479.5433048,480.7472024,1.10161790000166,1,3.68,485.4957576,0,2021-05-17 20:54:22,"2-Feb-2021","pitt","accrej",485.5694595,488.4723552,2.64,0,FALSE,"loss",1.97659759999999,NA,"FALSE","FALSE",-0.102279699998345,1.06855519999999,-0.926298099999997
221604,4,57,1003,191,189,1,0,1,0,501.264242200001,5.05,506.417843000001,507.365421300001,0.845121199999994,1,1.01,511.028901600001,0,2021-05-17 20:54:22,"2-Feb-2021","pitt","new_learn",511.0748528,513.829362,2.71,0,FALSE,"win",1.80046039999888,NA,"FALSE","FALSE",-0.102457099999981,2.65348030000001,-0.95404880000109
221604,4,58,1003,190,189,0,0,-1,0,511.0748528,2.71,513.829362,515.7250382,1.79158459999962,1,5.05,521.8217614,0,2021-05-17 20:54:22,"2-Feb-2021","pitt","accrej",521.8668263,523.960997300001,1.96,0,FALSE,"loss",1.13923590000104,NA,"FALSE","FALSE",-0.104091600000405,1.04672320000009,-0.954935100000057
221604,4,59,1003,189,190,0,1,1,0,521.8668263,1.96,523.960997300001,524.6362878,0.572874100000263,1,4.98,530.7158511,0,2021-05-17 20:54:22,"2-Feb-2021","pitt","accrej",530.7557141,533.1847698,2.29,0,FALSE,"win",1.46891870000002,NA,"FALSE","FALSE",-0.102416399998674,1.0995633,-0.960137000000032
221604,4,60,1003,190,191,0,0,0,0,530.7557141,2.29,533.1847698,533.867607600001,0.581144699999641,1,0.91,537.4613933,537.5233035,2021-05-17 20:54:22,"2-Feb-2021","pitt","accrej",540.086414700001,542.3607785,2.03,0,FALSE,"nothing",3.89938519999998,NA,"FALSE","FALSE",-0.101693100001284,2.68378569999913,-0.874978599999054
221604,4,62,1003,190,189,1,0,1,0,549.078426400001,4.63,553.840307800001,554.686982700001,0.74477239999942,1,4.71,560.5297137,0,2021-05-17 20:54:22,"2-Feb-2021","pitt","new_learn",560.602515300001,564.6893965,3.76,0,FALSE,"win",3.15968280000004,NA,"FALSE","FALSE",-0.101902500000505,1.13273099999901,-0.927198399999043
221604,4,64,1003,189,191,0,1,-1,0,569.832986400001,3.21,573.189020100001,574.100087300001,0.808945299999323,1,4.53,579.700019,0,2021-05-17 20:54:22,"2-Feb-2021","pitt","accrej",579.7569707,583.446363200001,3.4,0,FALSE,"loss",2.74634420000098,NA,"FALSE","FALSE",-0.102121900000611,1.06993169999907,-0.943048299999987
221604,4,66,1003,191,190,0,1,1,0,586.117134100001,2.02,588.329000900001,588.990093300001,0.558907999999064,1,2.06,592.6082222,0,2021-05-17 20:54:22,"2-Feb-2021","pitt","accrej",592.689700700001,595.4293074,2.4,0,FALSE,"win",1.82108519999997,NA,"FALSE","FALSE",-0.102184400000966,1.55812889999902,-0.918521499998974
221604,4,68,1003,191,189,1,0,-1,0,602.113971300001,2.06,604.304701000001,605.177998000001,0.771313299999747,1,0.87,608.814233900001,0,2021-05-17 20:54:22,"2-Feb-2021","pitt","new_learn",608.8648429,612.258596400001,3.31,0,FALSE,"loss",2.44436250000001,NA,"FALSE","FALSE",-0.101983700000233,2.76623589999997,-0.949391000001015
221604,4,69,1003,189,190,1,1,1,0,608.8648429,3.31,612.258596400001,612.9262987,0.56535139999869,1,4.99,618.9740793,0,2021-05-17 20:54:22,"2-Feb-2021","pitt","new_learn",619.023151000001,623.7494324,4.47,0,FALSE,"win",3.77535310000008,NA,"FALSE","FALSE",-0.10235090000026,1.0577806,-0.950928299998964
221604,4,72,1003,190,191,0,0,1,0,644.7604059,3.57,648.4553836,649.251457100001,0.693614800000432,1,4.12,654.400828100001,0,2021-05-17 20:54:22,"2-Feb-2021","pitt","accrej",654.4821147,657.557671300001,2.72,0,FALSE,"win",2.15684319999991,NA,"FALSE","FALSE",-0.102458700000512,1.02937100000008,-0.918713400001025
221604,4,75,1003,189,191,1,1,-1,0,673.553582,4.95,678.611067400001,679.6491592,0.935890299999301,1,4.97,685.6468998,0,2021-05-17 20:54:22,"2-Feb-2021","pitt","new_learn",685.699588700001,687.922153200001,2.18,0,FALSE,"loss",1.27525340000102,NA,"FALSE","FALSE",-0.102201499999637,1.02774060000002,-0.947311099999069
221604,4,76,1003,190,191,0,0,1,0,685.699588700001,2.18,687.922153200001,689.233361000001,1.20880799999941,1,1.05,692.841905900001,0,2021-05-17 20:54:22,"2-Feb-2021","pitt","accrej",692.916719000001,695.6330727,2.46,0,FALSE,"win",1.79116679999891,NA,"FALSE","FALSE",-0.10239980000051,2.55854490000013,-0.925186900000085
221604,4,78,1003,190,189,0,0,-1,0,699.0405271,6.91,706.1072429,706.8063088,0.596714300001622,1,1.47,710.4135742,0,2021-05-17 20:54:22,"2-Feb-2021","pitt","accrej",710.477028900001,713.386544200001,2.18,0,FALSE,"loss",1.97297000000106,NA,"FALSE","FALSE",-0.102351599998429,2.13726539999993,-0.936545299999011
221604,4,80,1003,191,189,1,0,-1,0,719.9083433,3.59,723.586251800001,724.509634,0.821659599998384,1,2.32,728.1685069,728.2236521,2021-05-17 20:54:22,"2-Feb-2021","pitt","new_learn",730.8002593,737.128153400001,6.27,0,FALSE,"loss",7.95964650000099,NA,"FALSE","FALSE",-0.101722600000585,1.33887289999996,-0.868247600000018
221604,4,81,1003,191,190,1,1,1,0,730.8002593,6.27,737.128153400001,738.045521100001,0.81481150000036,1,4.95,744.074699300001,0,2021-05-17 20:54:22,"2-Feb-2021","pitt","new_learn",744.119583900001,749.0942584,4.16,0,FALSE,"win",4.0195590999989,NA,"FALSE","FALSE",-0.10255619999964,1.0791782,-0.955115400000068
221604,4,83,1003,189,190,0,1,1,0,754.7134002,2.07,756.907189400001,757.583247100001,0.573917100000472,1,1.88,761.213356600001,0,2021-05-17 20:54:22,"2-Feb-2021","pitt","accrej",761.280103000001,766.9732625,5,0,FALSE,"win",4.75990589999901,NA,"FALSE","FALSE",-0.102140599999529,1.75010950000001,-0.933253600000057
440360,4,83,1003,191,190,1,1,1,1,819.707519054413,2.07,821.817410945892,822.963896989822,1.14648604393005,1,1.88,825.550920963287,0,2022-02-08 19:57:51,"28-Dec-2021","pitt","new_learn",846.809119939804,851.849166154861,5,2,FALSE,"win",25.298245191574,NA,"TRUE","TRUE",-3.77475828372553e-15,0.70702397346497,20.258198976517
440437,4,72,1003,189,191,1,1,1,0,640.467569112778,3.57,644.078616142273,645.876286029816,1.79766988754307,1,4.12,650.044871091843,0,2022-03-30 19:38:22,"2-Feb-2021","pitt","new_learn",651.044854164124,653.825217008591,2.72,0,FALSE,"win",2.78034591674805,1,"FALSE","FALSE",4.44089209850063e-15,0.048585062026973,-1.69277190025241e-05
440439,2,78,1001,184,185,1,0,1,1,766.262912034988,2.23,768.534745931625,769.466466903687,0.931720972061953,1,2.52,772.051570892334,0,2022-03-08 19:37:06,"28-Dec-2021","pitt","new_learn",804.787143945694,807.664016962051,2.83,4,FALSE,"win",34.6124460697171,NA,"TRUE","TRUE",0,0.0651039886470244,31.73557305336
440439,2,81,1001,59,-1000,0,0,-1,2,850.325840950012,1.93,852.294450044632,854.053469896317,1.75901985168503,1,2.49,856.606667041779,0,2022-03-08 19:37:06,"28-Dec-2021","pitt","accrej",878.426059961319,880.286823034286,1.81,3,FALSE,"loss",22.680155992507,NA,"TRUE","TRUE",4.88498130835069e-15,0.063197145462027,20.81939291954
440439,2,82,1001,183,185,1,1,-1,3,878.426059961319,1.81,880.286823034286,881.667056083679,1.38023304939293,1,4.03,885.725980997086,0,2022-03-08 19:37:06,"28-Dec-2021","pitt","new_learn",986.77863907814,989.40580701828,2.59,13,FALSE,"loss",102.679826021194,NA,"TRUE","TRUE",2.44249065417534e-15,0.0289249134070815,100.052658081054
440448,3,69,1002,186,187,1,1,1,0,595.147369146347,3.56,598.754248142242,599.427544116974,0.673295974732014,1,4.8,604.280811071396,0,2022-03-16 14:29:42,"2-Feb-2021","pitt","new_learn",605.279617071152,608.003275156021,2.66,0,FALSE,"win",2.72246408462502,1,"FALSE","FALSE",2.22044604925031e-16,0.0532669544220425,-0.00119400024402694
440450,4,13,1003,190,191,1,1,1,0,117.072894096375,5.96,123.08398103714,124.219142198563,1.135161161423,0,3.7,127.969159126282,0,2022-03-29 20:47:18,"2-Feb-2021","pitt","new_learn",128.966364145279,133.366574048996,4.35,0,FALSE,"win",4.39741492271401,1,"FALSE","FALSE",4.44089209850063e-16,0.0500169277189855,-0.00279498100300657
440453,2,23,1001,183,185,1,0,-1,0,189.289346933365,4.62,193.958884000778,195.233889102936,1.27500510215799,0,5.12,200.406232118607,0,2022-04-06 12:00:08,"2-Feb-2021","pitt","new_learn",201.404552936554,203.258758068085,1.81,0,FALSE,"loss",1.85252594947801,1,"FALSE","FALSE",-6.66133814775094e-16,0.0523430156709992,-0.00167918205298179
540005,3,13,1002,67,-1000,0,0,1,0,116.652731565526,2.3,119.054771879688,120.311374452431,1.16092123650014,1,2.95,123.303394635906,0,2021-10-11 23:24:35,"2-Feb-2021","unc","accrej",125.313969837734,127.318843739806,1.86,0,FALSE,"win",3.0154491039,NA,"FALSE","FALSE",-0.0956813362428517,0.0420201834750031,1.010575201828
540005,4,47,1003,65,-1000,0,1,-1,0,424.967381886207,3.78,428.831369069871,430.503616944654,1.57465063477866,1,2.97,433.679897800554,0,2021-10-11 23:24:35,"2-Feb-2021","unc","accrej",435.24834795855,437.728558020201,2.36,0,FALSE,"loss",3.04866021964699,NA,"FALSE","FALSE",-0.097597240004351,0.206280855899934,0.56845015799604
540032,1,50,1000,46,-1000,0,0,0,0,494.916462991154,2.45,497.50738974812,499.435423177609,1.83310661913129,1,4.96,504.507437161112,505.658855543996,2022-02-28 23:30:00,"2-Feb-2021","unc","accrej",536.460620509111,545.340850629087,8.8,2,FALSE,"nothing",39.8334134679749,NA,"FALSE","TRUE",-0.0949268103577154,0.112013983503061,28.453183347999
540032,1,52,1000,181,180,1,1,-1,0,550.566190867336,2,552.75757405773,553.969522798317,1.11067460000049,0,5.14,559.207543339464,0,2022-02-28 23:30:00,"2-Feb-2021","unc","new_learn",590.872765245615,593.291158145701,2.35,4,FALSE,"loss",33.0836148062371,NA,"FALSE","TRUE",-0.101274140586501,0.0980205411469797,30.665221906151
540032,1,55,1000,103,-1000,0,0,1,0,614.601140248938,2.26,616.991227929597,618.056877554278,0.97433755378006,1,3.47,621.641120081767,0,2022-02-28 23:30:00,"2-Feb-2021","unc","accrej",644.502782340976,650.107907284226,5.57,2,FALSE,"win",27.4667872024591,NA,"FALSE","TRUE",-0.0913120709009265,0.114242527488955,21.861662259209
540032,1,61,1000,182,181,1,1,1,0,700.655724617362,1.76,702.508163047256,704.013111360429,1.40398502815515,1,4.26,708.324739562464,0,2022-02-28 23:30:00,"2-Feb-2021","unc","new_learn",744.105699575273,747.608250861464,3.41,4,FALSE,"win",38.283511299,NA,"FALSE","TRUE",-0.100963285017881,0.0516282020349763,34.780960012809
540032,1,62,1000,76,-1000,0,0,-1,4,744.105699575273,3.41,747.608250861464,748.914526070468,1.22347443702165,1,2.3,751.308186419832,0,2022-02-28 23:30:00,"2-Feb-2021","unc","accrej",818.636366762861,821.791926436417,3.05,8,FALSE,"loss",69.483740016585,NA,"TRUE","TRUE",-0.0828007719824204,0.093660349364086,66.328180343029
540032,1,63,1000,51,-1000,0,0,-1,8,818.636366762861,3.05,821.791926436417,822.513259609463,0.627663140767254,0,1.53,824.108518644643,0,2022-02-28 23:30:00,"2-Feb-2021","unc","accrej",847.509877594362,849.725237064937,2.16,3,FALSE,"loss",24.616718420294,NA,"TRUE","TRUE",-0.0936700322787373,0.06525903518002,22.401358949719
540032,1,64,1000,180,182,1,1,1,3,847.509877594362,2.16,849.725237064937,852.685577436758,2.85886489303084,1,3.14,855.941918089055,0,2022-02-28 23:30:00,"2-Feb-2021","unc","new_learn",880.861485295289,883.692014918372,2.71,3,FALSE,"win",26.750096829317,NA,"TRUE","TRUE",-0.101475478790122,0.116340652297026,23.919567206234
540032,1,66,1000,182,180,1,1,1,1,896.510618171887,3.75,900.392084368388,902.024131540966,1.53092662343988,0,5.3,907.392171848682,0,2022-02-28 23:30:00,"2-Feb-2021","unc","new_learn",953.327003031736,957.158947031014,3.71,5,FALSE,"win",48.766775182332,NA,"TRUE","TRUE",-0.101120549138047,0.0680403077160463,44.934831183054
540032,2,19,1001,36,-1000,0,0,-1,1,275.478986697679,2.35,277.907591420284,279.105491559196,1.10985589126358,0,1.39,280.540842949529,0,2022-02-28 23:30:00,"2-Feb-2021","unc","accrej",301.619445668766,306.374350241735,4.69,2,FALSE,"loss",24.833507292206,NA,"TRUE","TRUE",-0.0880442476484384,0.0453513903329963,20.078602719237
540032,2,20,1001,184,185,1,0,1,2,301.619445668766,4.69,306.374350241735,308.182612121745,1.70719475386431,1,1.03,310.824351243442,311.884487939766,2022-02-28 23:30:00,"2-Feb-2021","unc","new_learn",376.890650292509,379.507966049656,2.52,8,FALSE,"win",67.683614806214,NA,"TRUE","TRUE",-0.101067126145726,1.61173912169698,62.566299049067
540032,2,29,1001,67,-1000,0,0,1,0,497.992936800525,1.75,499.858329326613,501.929561329714,1.98747929855017,1,4.61,506.608317974198,0,2022-02-28 23:30:00,"2-Feb-2021","unc","accrej",530.981124622747,533.60840044613,2.51,3,FALSE,"win",26.000082471932,NA,"FALSE","TRUE",-0.0837527045508182,0.0687566444839831,23.372806648549
540032,2,44,1001,62,-1000,0,1,1,1,730.667367844668,1.77,732.55925688491,735.042146138847,2.39103159972001,1,4.45,739.642464340082,0,2022-02-28 23:30:00,"2-Feb-2021","unc","accrej",769.303364986554,771.292589216551,1.87,4,FALSE,"win",30.650124876469,NA,"TRUE","TRUE",-0.0918576542169363,0.150318201234995,28.660900646472
540032,2,46,1001,17,-1000,0,0,-1,2,790.670192590216,1.78,792.59281860193,793.391366495751,0.716434944071807,1,1.12,794.59274781635,0,2022-02-28 23:30:00,"2-Feb-2021","unc","accrej",819.86744597595,822.726136242214,2.79,3,FALSE,"loss",27.133388425864,NA,"TRUE","TRUE",-0.0821129497491029,0.0813813205990073,24.2746981596
